Rule_Id,Core_Id,Rule_ID,Rule_ID_Version,Rule_Identifier_Id,Rule_Identifier_Rule_Version,Authority_Organization,Standards_Name,Standards_Version,Rule_Identifier_Conformance_Guide_Version,Cited_Item,Cited_Guidance,Cited_Doc,Cited_Section,Release_Notes,Citations,References_Origin,Sensitivity,Severity,verisian_comment,verisian_status,verisian_validity,Description,Outcome_Message,Discussion_Notes,Rule_Type,Variable,Condition,Rule,Scopes_Classes,Scopes_Domains,Class,Subclass,Dataset_or_Domain,Check,Match_Datasets,Operations,Outcome_Output_Variables,Related_Rule(s),Rule_Set,Jira_Executability,Team,Assigned_To,Update_Status,CORE_Programmability_Status,CORE_Programmability_Comments,Historical_Programmable,Historical_Programmable_Flag_Comment,Core_Version
CG0075,CDISC.SDTMIG.CG0075,CG0075,1.0,CG0075,1.0,CDISC,SDTMIG,3.4,2.0,Assumption 1,The intent of the domain model is to capture protocol deviations that occurred during the course of the study (see ICH E3: Section 10.2 at http://www.ich.org/fileadmin/Public_Web_Site/ICH_Products/Guidelines/Efficacy/E3/E3_Guideline.pdf). Usually these are deviations that occur after the subject has been randomized or received the first treatment.,IG v3.4,6.2.7,Cited guidance section updated.,- Cited Guidance: The intent of the domain model is to capture protocol deviations that occurred during the course of the study (see ICH E3 Section 10.2 at http://www.ich.org/fileadmin/Public_Web_Site/ICH_Products/Guidelines/Efficacy/E3/E3_Guideline.pdf). Usually these are deviations that occur after the subject has been randomized or received the first treatment. Document: IG v3.4 Item: Assumption 1 Section: 6.2.7,SDTM and SDTMIG Conformance Rules,Record,Error,,success,invalid,Raise an error when DVSTDTC is earlier than RFICDTC in DM.,DVSTDTC is earlier than RFICDTC in DM.,,Date Arithmetic,DVSTDTC,,DVSTDTC >= DM.RFICDTC,"
 Include:
 - Events
","Domains:
 Include:
 - DV",EVT,,DV,"all:
 - name: DVSTDTC
 operator: date_less_than
 value: RFICDTC","- Name: DM
 Keys:
 - USUBJID
",,- DVSTDTC,,3.4,Fully Executable,,,,,,Yes,,1.0
CG0078,CDISC.SDTMIG.CG0078,CG0078,1.0,CG0078,1.0,CDISC,SDTMIG,3.4,2.0,|[4.2.6]Assumption 2.B.3.a.|,"IG v3.4[2.6][Do not create separate domains based on time; rather, represent both prior and current observations in a domain (e.g., CM for all non-study medications). Note that AE and MH are an exception to this best practice because of regulatory reporting needs]|IG v3.4[4.2.6][Item 2.B.3.a (Discussion of --CAT/--SCAT): Adverse Events (AE), Medical History (MH), and Clinical Events (CE), for example, are conceptually the same data, the only differences being when the event started relative to the study start and whether the event is considered a regulatory reportable adverse event in the study.]|IG v3.4[6.2.6][MH Description: The medical history dataset includes the subject's prior history at the start of the trial.]",IG v3.4,IG v3.4[2.6]|IG v3.4[4.2.6]|IG v3.4[6.2],"Cited guidance updated.

CG0078 is discontinued after 3.4, replaced by rules that account for the DC domain.","- Cited Guidance: Do not create separate domains based on time; rather, represent both prior and current observations in a domain (e.g., CM for all non-study medications). Note that Adverse Events and Medical History are an exception to this best practice because of regulatory reporting needs. Document: IG v3.4 Section:  2.6  - Cited Guidance: Adverse Events (AE), Medical History (MH), and Clinical Events (CE),  for example, are conceptually the same data, the only differences be",SDTM and SDTMIG Conformance Rules,Record,Warning,,success,invalid,Raise an issue if MHENDTC has a non-empty date that is on or after DM.RFSTDTC,MHENDTC ^= null and MHENDTC is on or after the DM.RFSTDTC. The medical history dataset should include the subject s prior history at the start of the trial.,"Is this even correct?  Can an end date in MH be updated if the event resolves while the study is ongoing?.  need 2 vs of rule, dm and dc. need to look at if there's an event in between participations.  look at assumptions

CR (2024-11-20): CG0078 will be discontinued after 3.4, replaced by rules that account for the DC domain.",Date Arithmetic,MHENDTC,MHENDTC ^= null,MHENDTC < DM.RFSTDTC,"
 Include:
 - Events
","Domains:
 Include:
 - MH",EVT,,MH,"all:
 - name: MHENDTC
 operator: non_empty
 - name: MHENDTC
 operator: date_greater_than_or_equal_to
 value: RFSTDTC","- Name: DM
 Keys:
 - USUBJID
",,- MHENDTC - RFSTDTC,,3.4,Fully Executable,Final Review,"Dave Scocca
/ Carlo Radovsky",Final,,,Yes,,1.0
CG0079,CDISC.SDTMIG.CG0079,CG0079,1.0,CG0079,1.0,CDISC,SDTMIG,3.4,2.0,,"IG v3.3[2.6][Do not create separate domains based on time; rather, represent both prior and current observations in a domain (e.g., CM for all non-study medications). Note that AE and MH are an exception to this best practice because of regulatory reporting needs]|IG v3.3[4.2.6][Item 2.B.3.A (Discussion of --CAT/--SCAT):  Adverse Events (AE), Medical History (MH), and Clinical Events (CE), for example, are conceptually the same data, the only differences being when the event started relative to the study start and whether the event is considered a regulatory reportable adverse event in the study.]|IG v3.3[6.2][Domain Code Table: The medical history dataset includes the subject's prior history at the start of the trial.][MH: The medical history dataset includes the subject's prior history at the start of the trial.]",IG v3.4,IG v3.3[2.6]|IG v3.3[4.2.6]|IG v3.3[6.2],"Cited guidance updated.

CG0079 is discontinued after 3.4, replaced by rules that account for the DC domain.","- Cited Guidance: Do not create separate domains based on time; rather, represent both prior and current observations in a domain (e.g., CM for all non-study medications). Note that Adverse Events and Medical History are an exception to this best practice because of regulatory reporting needs. Document: IG v3.4 Item:  1  Section:  2.6  - Cited Guidance: Adverse Events (AE), Medical History (MH), and Clinical Events (CE),  for example, are conceptually the same data, the only di",SDTM and SDTMIG Conformance Rules,Record,Warning,,success,invalid,Raise an issue if MHSTDTC has a non-empty date that later than DM.RFSTDTC,MHSTDTC ^= null and MHSTDTC is on or after the DM.RFSTDTC. The medical history dataset should include the subject s prior history at the start of the trial.,Rule retired for IGs after 3.4 to accommodated DC,Date Arithmetic,MHSTDTC,MHENDTC ^= null,MHSTDTC < DM.RFSTDTC,"
 Include:
 - Events
","Domains:
 Include:
 - MH",EVT,,MH,"all:
 - name: MHSTDTC
 operator: non_empty
 - name: MHSTDTC
 operator: date_greater_than_or_equal_to
 value: RFSTDTC
","- Name: DM
 Keys:
 - USUBJID
",,- MHSTDTC - RFSTDTC,,3.4,Fully Executable,Final Review,Dave Scocca / Carlo,Final,,,Yes,,1.0
