Rule_Id,Core_Id,Rule_ID,Rule_ID_Version,Rule_Identifier_Id,Rule_Identifier_Rule_Version,Authority_Organization,Standards_Name,Standards_Version,Rule_Identifier_Conformance_Guide_Version,Cited_Item,Cited_Guidance,Cited_Doc,Cited_Section,Release_Notes,Citations,References_Origin,Sensitivity,Severity,verisian_comment,verisian_status,verisian_validity,Description,Outcome_Message,Discussion_Notes,Rule_Type,Variable,Condition,Rule,Scopes_Classes,Scopes_Domains,Class,Subclass,Dataset_or_Domain,Check,Match_Datasets,Operations,Outcome_Output_Variables,Related_Rule(s),Rule_Set,Jira_Executability,Team,Assigned_To,Update_Status,CORE_Programmability_Status,CORE_Programmability_Comments,Historical_Programmable,Historical_Programmable_Flag_Comment,Core_Version
CG0168,CDISC.SDTMIG.CG0168,CG0168,1.0,CG0168,1.0,CDISC,SDTMIG,3.4,2.0,Specification|Assumption 2c,"Specification[Date/time of comment on dedicated comment form. Should be null if this is a child record of another domain or if comment date was not collected.]|Assumption 2c[Those related to a specific parent record or group of parent records, in which case the value of the variable RDOMAIN is set to the DOMAIN code of the parent record(s) and the variables IDVAR and IDVARVAL are populated with the key variable name and value of the parent record(s). Assumptions for populating IDVAR and IDVARVAL are further described in Section 8.5, Relating Comments to a Parent Domain. CODTC should be null because the timing of the parent record(s) is inherited by the comment record. See example, Rows 3-5.]",IG v3.4,5.1,Updated for multiple items,"- Cited Guidance: Date/time of comment on dedicated comment form. Should be null if this is a child record of another domain or if comment date was not collected. Document: IG v3.4 Item: Specification Section:  5.1  - Cited Guidance: Those related to a specific parent record or group of parent records, in which case the value of the variable RDOMAIN is set to the DOMAIN code of the parent record(s) and the variables IDVAR and IDVARVAL are populated with the key variable name an",SDTM and SDTMIG Conformance Rules,Record,Warning,,failing,missing,Trigger error when IDVAR is not null and CODTC is not null,CODTC is populated when IDVAR is also populated,,Populated Values,CODTC,IDVAR ^= null,CODTC = null,"
 Include:
 - Special-Purpose
","Domains:
 Include:
 - CO",SPC,,CO,"all:
 - name: IDVAR
 operator: non_empty
 - name: CODTC
 operator: non_empty",,,- USUBJID - IDVAR - CODTC,,3.4,Fully Executable,,,,,,Yes,,1.0
CG0037,CDISC.SDTMIG.CG0037,CG0037,1.0,CG0037,1.0,CDISC,SDTMIG,3.4,2.0,Specification|--BDSYCD,"IG v3.4[6.2.1][Specification][Dictionary derived. Code for the body system or organ class used by the sponsor. When using a multi-axial dictionary such as MedDRA, this should contain the SOC used for the sponsor's analyses and summary tables, which may not necessarily be the primary SOC.]|Model v2.0[Events][--BDSYCD][MedDRA System Organ Class code corresponding to --BODSYS assigned for analysis.]",IG v3.4|Model v2.0,Events,IG cited guidance updated and switched order of variables in rule. Model reference updated to current style. Switched the order of the variables around the equals sign in the rule to be consistent with how the rule reads for v3.2 and v3.3.,"- Cited Guidance: Dictionary derived. Code for the body system or organ class used by the sponsor. When using a multi-axial dictionary such as MedDRA, this should contain the SOC used for the sponsor s analyses and summary tables, which may not necessarily be the primary SOC. Document: SDTMIG v3.4 Item: Specification 6.2.1 Section: Events - Cited Guidance: MedDRA System Organ Class code corresponding to --BODSYS assigned for analysis. Document: Model v2.0 Section: Event",SDTM and SDTMIG Conformance Rules,Record,Error,,failing,invalid,Raise an error when primary SOC is used for analysis and SOC Code is not equal to Body System Code,Primary analysis was used but --SOCCD and --BDSYCD are not equal,,Populated Values,--BDSYCD,Primary SOC used for analysis,--SOCCD = --BDSYCD,"
 Include:
 - Events
","Domains:
 Exclude:
 - DS
 - DV
 - HO",EVT,,"NOT(DS, DV, HO)  ","all:
 - name: --SOCCD
 operator: not_equal_to
 value: --BDSYCD",,,- --TERM - --BDSYCD - --SOCCD,,3.4,Partially Executable,,,,,,Conditional,Dependent on additional non-CDISC metadata,1.0
CG0249,CDISC.SDTMIG.CG0249,CG0249,1.0,CG0249,1.0,CDISC,SDTMIG,3.4,2.0,Assumption 7,"If an Element does not end with a decision that could lead to a shortened path within the Arm, then TATRANS will be blank.",IG v3.4,7.2.1,No Change,"- Cited Guidance: If an Element does not end with a decision that could lead to a shortened path within the Arm, then TATRANS will be blank. Document: IG v3.4 Item: Assumption 7 Section: 7.2.1",SDTM and SDTMIG Conformance Rules,Record,Warning,,not implemented,,Trigger error when element does not end with a decision that could lead to a shortened path within the Arm and TATRANS is not null,TATRANS is populated when the element does not end with a decision that could lead to a shortened path within the Arm,,Populated Values,TATRANS,Element does not end with a decision that could lead to a shortened path within the Arm,TATRANS = null,"
 Include:
 - Trial Design
","Domains:
 Include:
 - TA",TDM,,TA,"all:
 - name: null
 operator: null
 - name: TATRANS
 operator: non_empty",,,,,3.4,Not Executable,,,,,,Conditional,Dependent on additional appropriate metatdata,1.0
CG0047,CDISC.SDTMIG.CG0047,CG0047,1.0,CG0047,1.0,CDISC,SDTMIG,3.4,2.0,--MODIFY,A value which represents an alteration to a collected value for coding purposes. Synonym Qualifier of --TERM.,Model v2.0,Events,Cited guidance updated. Reference to model section and item updated per new style.,- Cited Guidance: A value which represents an alteration to a collected value for coding purposes. Synonym Qualifier of --TERM. Document: Model v2.0 Item: --MODIFY Section: Events,SDTM and SDTMIG Conformance Rules,Record,Warning,,not implemented,,Trigger error when --TERM has been modified for coding and --MODIFY is null,--MODIFY is not populated when --TERM has been modified for coding,,Populated Values,--MODIFY,--TERM modified for coding,--MODIFY ^= null,"
 Include:
 - Events
","Domains:
 Include:
 - All",EVT,,ALL,"all:
 - name: null
 operator: null
 - name: --MODIFY
 operator: empty",,,,,3.4,Not Executable,,,,,,Conditional,Dependent on additional non-CDISC metadata,1.0
CG0039,CDISC.SDTMIG.CG0039,CG0039,1.0,CG0039,1.0,CDISC,SDTMIG,3.4,2.0,Specification|--BODSYS,"IG v3.4[6.2.1][Specification][Dictionary derived. Body system or organ class used by the sponsor from the coding dictionary (e.g., MedDRA). When using a multi-axial dictionary such as MedDRA, this should contain the SOC used for the sponsor's analyses and summary tables which may not necessarily be the primary SOC.]|Model v2.0[Events][--BODSYS][Body system or system organ class assigned for analysis from a standard hierarchy (e.g. MedDRA) associated with an event.]",IG v3.4|Model v2.0,6.2.1|Events,Text for cited guidance was slightly modified in SDTMIG v3.4. Model reference updated to current style.,"- Cited Guidance: Dictionary derived. Body system or organ class used by the sponsor from the coding dictionary (e.g., MedDRA). When using a multi-axial dictionary such as MedDRA, this should contain the SOC used for the sponsor s analyses and summary tables which may not necessarily be the primary SOC. Document: SDTMIG v3.4 Section: 6.2.1 - Cited Guidance: Body system or system organ class assigned for analysis from a standard hierarchy (e.g. MedDRA) associated with an event.",SDTM and SDTMIG Conformance Rules,Record,Error,,success,invalid,Raise an error if primary SOC is used for analysis and -BODSYS is not equal to -SOC,Primary analysis used but --BODSYS and --SOC are not equal,,Populated Values,--BODSYS,Primary SOC used for analysis,--BODSYS = --SOC,"
 Include:
 - Events
","Domains:
 Exclude:
 - DS
 - DV
 - HO",EVT,,"NOT(DS, DV, HO)  ","all:
 - name: --BODSYS
 operator: not_equal_to
 value: --SOC",,,- --TERM - --BODSYS - --SOC,,3.4,Fully Executable,,,,,,Conditional,Dependent on additional non-CDISC metadata,1.0
CG0348,CDISC.SDTMIG.CG0348,CG0348,2.0,CG0348,1.0,CDISC,SDTMIG,3.4,2.0,,"he --ORRES variable contains the result of the measurement or finding as originally received or collected. --ORRES is an expected variable and should always be populated, with two exceptions:

When --STAT = ""NOT DONE"" since there is no result for such a record
When --DRVFL = ""Y"" since the distinction between an original result and a standard result is not applicable for records for which --DRVFL = ""Y"".",IG v3.4,4.5.1.1,"New version of rule, addressing that the OR in the condition should be an AND","- Cited Guidance:  --ORRES variable contains the result of the measurement or finding as originally received or collected. --ORRES is an expected variable and should always be populated, with two exceptions  :   When --STAT =  NOT DONE  since there is no result for such a record When --DRVFL =  Y  since the distinction between an original result and a standard result is not applicable for records for which --DRVFL =  Y    Document: IG v3.4 Item:     Section: 4.5.1.1",SDTM and SDTMIG Conformance Rules,Value,Error,,success,invalid,Verify that --ORRES is not missing when either --STAT is null or --DRVFL not equal to  Y,--ORRES cannot be null when --STAT is null or --DRVFL not equal to  Y,"New version of rule, addressing that the OR in the condition should be an AND",Populated Values,--ORRES,--STAT = null and--DRVFL ^= 'Y',--ORRES ^= null,"
 Include:
 - Findings
","Domains:
 Include:
 - All",FND,,ALL,"all:
 - any:
 - name: --STAT
 operator: empty
 - name: --DRVFL
 operator: not_equal_to
 value:  Y 
 - all:
 - name: --ORRES
 operator: empty",,,-  --STAT  -  --DRVFL  -  --ORRES,,3.4,Fully Executable,Final Review,Carlo,Final,,,Yes,,1.0
CG0428,CDISC.SDTMIG.CG0428,CG0428,1.0,CG0428,1.0,CDISC,SDTMIG,3.4,2.0,--TOX,Variable Qualifier of --TOXGR,Model v2.0,Events|Findings,Cited guidance updated. Reference to model section and item updated per new style.,- Cited Guidance: Variable Qualifier of --TOXGR Document: Model v2.0 Item: --TOX Section: Events|Findings,SDTM and SDTMIG Conformance Rules,Record,Error,,success,invalid,"Raise an error when --TOX is not empty, but --TOXGR is empty.",--TOXGR should not be null when --TOX is populated.,,Populated Values,--TOXGR,--TOX ^= null,--TOXGR ^= null,"
 Include:
 - Events
 - Findings
","Domains:
 Include:
 - AE
 - MH
 - CE
 - EG
 - LB
 - PC
 - PP","EVT, FND",,"AE, MH, CE, EG, LB, PC, PP","all:
 - name: --TOX
 operator: non_empty
 - name: --TOXGR
 operator: empty",,,- --TOX - --TOXGR,,3.4,Fully Executable,,,,,,Yes,,1.0
CG0427,CDISC.SDTMIG.CG0427,CG0427,1.0,CG0427,1.0,CDISC,SDTMIG,3.4,2.0,--RESCAT,--RESCAT: A grouping or classification of the results of an assessment. The result is in --STRESC.,Model v2.0,Findings,"Cited guidance updated. Reference to model section and item updated per new style.

Retired from SDTMIGs after v3.4, where --RESCAT applies to multiple variables",- Cited Guidance: A grouping or classification of the results of an assessment. The result is in --STRESC. Document: Model v2.0 Item: --RESCAT Section: Findings,SDTM and SDTMIG Conformance Rules,Record,Error,,success,invalid,"Raise an error when --RESCAT is not empty, but --STRESC is empty","Missing --STRESC value, when --RESCAT value is populated.","Retired from SDTMIGs after v3.4, where --RESCAT applies to multiple variables",Populated Values,--STRESC,--RESCAT ^= null,--STRESC ^= null,"
 Include:
 - Findings
","Domains:
 Include:
 - All",FND,,ALL,"all:
 - name: --RESCAT
 operator: non_empty
 - name: --STRESC
 operator: empty
",,,- --RESCAT - --STRESC,,3.4,Fully Executable,Final Review,Carlo,Final,,,Yes,,1.0
