Rule_Id,Core_Id,Rule_ID,Rule_ID_Version,Rule_Identifier_Id,Rule_Identifier_Rule_Version,Authority_Organization,Standards_Name,Standards_Version,Rule_Identifier_Conformance_Guide_Version,Cited_Item,Cited_Guidance,Cited_Doc,Cited_Section,Release_Notes,Citations,References_Origin,Sensitivity,Severity,verisian_comment,verisian_status,verisian_validity,Description,Outcome_Message,Discussion_Notes,Rule_Type,Variable,Condition,Rule,Scopes_Classes,Scopes_Domains,Class,Subclass,Dataset_or_Domain,Check,Match_Datasets,Operations,Outcome_Output_Variables,Related_Rule(s),Rule_Set,Jira_Executability,Team,Assigned_To,Update_Status,CORE_Programmability_Status,CORE_Programmability_Comments,Historical_Programmable,Historical_Programmable_Flag_Comment,Core_Version
CG0291,CDISC.SDTMIG.CG0291,CG0291,1.0,CG0291,1.0,CDISC,SDTMIG,3.4,2.0,,"While it would be possible to allow a value such as NONE or UNBOUNDED to be entered in TSVAL, validation programs would then have to recognize this special term as an exception to the expected data format. Therefore, it was decided that a separate null flavor variable that uses the ISO 21090 null flavor terminology would be a better solution. ",IG v3.4,7.4.2.1,No Change,"- Cited Guidance:  While it would be possible to allow a value such as NONE or UNBOUNDED to be entered in TSVAL, validation programs would then have to recognize this special term as an exception to the expected data format. Therefore, it was decided that a separate null flavor variable that uses the ISO 21090 null flavor terminology would be a better solution.   Document: IG v3.4 Section: 7.4.2.1",SDTM and SDTMIG Conformance Rules,Record,Warning,,failing,invalid,"When TSVALNF is null, TSVAL should not be populated with an ISO 21090 term or other null flavor. This rule has been executed with the understanding that non-ISO 21090 terms may not be flagged, and there may be exceptions where the term has been used appropriately.",TSVAL is populated with an ISO 21090 or null flavor term,,Range & Limit,TSVAL,TSVALNF = null,TSVAL not populated with values or synonyms of values in the ISO 21090 null flavor codelist (or other terms that can be represented as null flavors),"
 Include:
 - Trial Design
","Domains:
 Include:
 - TS",TDM,,TS,"all:
 - name: TSVALNF
 operator: empty
 - name: TSVAL
 operator: prefix_matches_regex
 value: (NI|OTH|NINF|PINF|UNK|ASKU|NAV|NASK|TRC|MSK|NA|QS)",,,,,3.4,Not Executable,,,,,,Yes,,1.0
CG0178,CDISC.SDTMIG.CG0178,CG0178,1.0,CG0178,1.0,CDISC,SDTMIG,3.4,2.0,Assumption 1,"The complete list of Inclusion/Exclusion criteria can be found in the Trial Inclusion/Exclusion Criteria (TI) dataset described in Section 7.4.1, Trial Inclusion/Exclusion Criteria.",IG v3.4,6.3.4,No Change,"- Cited Guidance:  The complete list of Inclusion/Exclusion criteria can be found\ \ in the Trial Inclusion/Exclusion Criteria\_(TI) dataset described in Section\ \ 7.4.1,\_Trial Inclusion/Exclusion Criteria.  Document: IG v3.4 Item: Specification Section: 6.3.4",SDTM and SDTMIG Conformance Rules,Record,Warning,,failing,missing,Check if IETEST is not in TI.IETEST,IETEST is not in TI.IETEST,,Range & Limit,IETEST,,IETEST in TI.IETEST,"
 Include:
 - Findings
","Domains:
 Include:
 - IE",FND,,IE,"all:
 - name: IETEST
 operator: is_not_contained_by
 value: $ti_ietest",,"- operator: distinct
 domain: TI
 name: IETEST
 id: $ti_ietest",,,3.4,Fully Executable,,,,,,Yes,,1.0
CG0112,CDISC.SDTMIG.CG0112,CG0112,1.0,CG0112,1.0,CDISC,SDTMIG,3.4,2.0,--DOSTXT,"A textual description of the quantity of an agent (e.g., drug, substance, radiation) taken or absorbed at a single administration.",Model v2.0,Interventions,Cited guidance updated. Reference to model section and item updated per new style.,"- Cited Guidance: A textual description of the quantity of an agent (e.g., drug, substance, radiation) taken or absorbed at a single administration. Document: Model v2.0 Section: Interventions",SDTM and SDTMIG Conformance Rules,Record,Error,,failing,invalid,Raise an error if --DOSTXT value is numeric.,--DOSTXT value is numeric.,,Range & Limit,--DOSTXT,,--DOSTXT value is non-numeric,"
 Include:
 - Interventions
","Domains:
 Include:
 - All",INT,,ALL,"all:
 - name: --DOSTXT
 operator: matches_regex
 value: ^\d*\.?\d*$
 - name: --DOSTXT
 operator: non_empty",,,,,3.4,Fully Executable,,,,,,Yes,,1.0
CG0034,CDISC.SDTMIG.CG0034,CG0034,3.0,CG0034,2.0,CDISC,SDTMIG,3.4,2.0,,The Subject Visits domain consolidates information about the timing of subject visits that is otherwise spread over domains that include the visit variables (VISITNUM and possibly VISIT and/or VISITDY).,IG v3.4,5.5,Changed variable column from VISIT to VISITNUM since the rule is about VISITNUM. Up versioned rule.,- Cited Guidance:  The Subject Visits domain consolidates information about the timing of subject visits that is otherwise spread over domains that include the visit variables (VISITNUM and possibly VISIT and/or VISITDY).  Document: IG v3.4 Item: VISITNUM Section:  5.5,SDTM and SDTMIG Conformance Rules,Record,Error,,failing,invalid,If VISITNUM is not null then VISITNUM should be among SV.VISITNUM,VISITNUM is not among VISITNUM in SV domain.,"New version, updated Class",Range & Limit,VISITNUM,VISITNUM ^= null,VISITNUM in SV.VISITNUM,"
 Include:
 - All
","Domains:
 Exclude:
 - SV","GEN, SPC",,ALL,"all:
 - name: VISITNUM
 operator: non_empty
 - name: VISITNUM
 operator: is_not_contained_by
 value: $sv_visitnum 
",,"- operator: distinct
 domain: SV
 name: VISITNUM
 id: $sv_visitnum",- VISITNUM,,3.4,Fully Executable,Final Review,Carlo,Final,,,Yes,,1.0
CG0248,CDISC.SDTMIG.CG0248,CG0248,1.0,CG0248,1.0,CDISC,SDTMIG,3.4,2.0,Assumption 1,TAETORD is an integer.,IG v3.4,7.2.1,No Change,- Cited Guidance: TAETORD is an integer. Document: IG v3.4 Item: Assumption 1 Section: 7.2.1,SDTM and SDTMIG Conformance Rules,Value,Error,,failing,invalid,TAETORD must be an integer,TAETORD is not an integer,,Range & Limit,TAETORD,,TAETORD is an integer,"
 Include:
 - Trial Design
","Domains:
 Include:
 - TA",TDM,,TA,"all:
 - name: TAETORD
 operator: not_matches_regex
 value: (-?[1-9]\d*|0)$",,,- TAETORD,,3.4,Fully Executable,,,,,,Yes,,1.0
CG0653,CDISC.SDTMIG.CG0653,CG0653,1.0,CG0653,1.0,CDISC,SDTMIG,3.4,2.0,SVPRESP,"Subject Visits[SVPRESP][Values should be ""Y"" or null.]",Model v2.0,Subject Visits,"New rule added similar to CG0085, but for the SV domain.",- Cited Guidance: Values should be  Y  or null. Document: SDTM v2.0 Section: Subject Visits,SDTM and SDTMIG Conformance Rules,Record,Error,,failing,missing,Raise an error when SVPRESP not  Y  or null.,SVPRESP is not null and not equal to  Y . Values should be  Y  or null.,,Range & Limit,SVPRESP,,"SVPRESP in (""Y"", null)","
 Include:
 - Special-Purpose
","Domains:
 Include:
 - SV",SPC,,SV,"all:
 - name: SVPRESP
 operator: not_equal_to
 value:  Y 
 - name: SVPRESP
 operator: non_empty",,,,,3.4,Fully Executable,,,,,,,,1.0
CG0033,CDISC.SDTMIG.CG0033,CG0033,2.0,CG0033,2.0,CDISC,SDTMIG,3.4,2.0,,"For planned visits, values of VISIT, VISITNUM, and VISITDY must be those defined in the Trial Visits (TV) dataset (Section 7.3.1, Trial Visits).",IG v3.4,4.4.5,Changed variable column from VISIT to VISITNUM since the rule is about VISITNUM. Up versioned rule. Text for cited guidance was slightly modified in SDTMIG v3.4,"- Cited Guidance: For planned visits, values of VISIT, VISITNUM, and VISITDY must be those defined in the Trial Visits (TV) dataset (Section 7.3.1, Trial Visits). Document: SDTMIG v3.4 Item: Specification Section: 4.4.5",SDTM and SDTMIG Conformance Rules,Record,Error,,failing,invalid,"Verify when VISITNUM is not null in any given domain and VISITNUM is planned (SVPRESP =  Y ), then VISIT should be among TV.VISITNUM.","For a planned visit (SVPRESP =  Y ), non-missing VISITNUM value must be among those present in TV.VISITNUM. in TV.VISITNUM",,Range & Limit,VISITNUM,VISITNUM ^= null and is planned,VISITNUM in TV.VISITNUM,"
 Include:
 - All
","Domains:
 Exclude:
 - TV",ALL,,ALL,"all:
 - name: SVPRESP
 operator: equal_to
 value:  Y 
 - name: VISITNUM
 operator: is_not_contained_by
 value: $TV_VISITNUM
","- Name: SV
 Keys:
 - USUBJID
 - VISITNUM
","- domain: TV
 id: $TV_VISITNUM
 name: VISITNUM
 operator: distinct",-  VISITNUM  -  SVPRESP,,3.4,Fully Executable,,,,,,Conditional,Dependent on additional protocol metadata,1.0
CG0654,CDISC.SDTMIG.CG0654,CG0654,1.0,CG0654,1.0,CDISC,SDTMIG,3.4,2.0,SVPRESP|SVOCCUR,"Subject Visits[SVPRESP][An indication that the visit is planned. Values should be ""Y"" or null.]|Subject Visits[SVOCCUR][An indication as to whether a prespecified (planned) visit has occurred.]

",Model v2.0,Subject Visits,"New rule added similar to CG0089, but for the SV domain.",- Cited Guidance: An indication that the visit is planned. Values should be  Y  or null. Document: SDTM v2.0 Item: SVPRESP Section: Subject Visits - Cited Guidance: An indication as to whether a prespecified (planned) visit has occurred. Document: SDTM v2.0 Item: SVOCCUR Section: Subject Visits,SDTM and SDTMIG Conformance Rules,Record,Error,,failing,missing,Raise an error when SVOCCUR is not null and SVPRESP is not  Y .,SVPRESP is not  Y  when SVOCCUR is populated.,,Range & Limit,SVPRESP,SVOCCUR ^= null,"SVPRESP = ""Y""","
 Include:
 - Special-Purpose
","Domains:
 Include:
 - SV",SPC,,SV,"all:
 - name: SVOCCUR
 operator: non_empty
 - name: SVPRESP
 operator: not_equal_to
 value:  Y",,,,,3.4,Fully Executable,,,,,,,,1.0
CG0466,CDISC.SDTMIG.CG0466,CG0466,1.0,CG0466,1.0,CDISC,SDTMIG,3.4,2.0,--LLOQ,Units will be those used for --STRESU.,Model v2.0,Findings,Cited guidance updated. Reference to model section and item updated per new style.,- Cited Guidance: Units will be those used for --STRESU. Document: Model v2.0 Item: --LLOQ Section: Findings,SDTM and SDTMIG Conformance Rules,Record,Warning,,not implemented,,Trigger error when --LLOQ is not expressed using the units in --STRESU,--LLOQ is not expressed using the units in --STRESU,,Range & Limit,--LLOQ,--LLOQ present in dataset,--LLOQ is expressed using the units in --STRESU,"
 Include:
 - Findings
","Domains:
 Include:
 - All",FND,,ALL,"all:
 - name: --LLOQ
 operator: exists
 - name: null
 operator: null",,,,,3.4,Not Executable,,,,,,Conditional,Dependent on additional appropriate metatdata,1.0
CG0546,CDISC.SDTMIG.CG0546,CG0546,1.0,CG0546,1.0,CDISC,SDTMIG,3.4,2.0,Assumption 2.b,"For types of Disease Milestones that can occur multiple times, MIDS will usually be an abbreviated version of MIDSTYPE and will always end with a sequence number. Sequence numbers should start with one and indicate the chronological order of the instances of this type of Disease Milestone.",IG v3.4,5.4,Section change in IG 3.4,"- Cited Guidance: For types of Disease Milestones that can occur multiple times, MIDS will usually be an abbreviated version of MIDSTYPE and will always end with a sequence number. Sequence numbers should start with one and indicate the chronological order of the instances of this type of Disease Milestone. Document: IG v3.4 Item: Assumption 2.b Section:  5.4",SDTM and SDTMIG Conformance Rules,Dataset,Warning,,not implemented,,Trigger error when MIDSTYPE=TM.MIDSTYPE and TM.TMRPT=Y and MIDS is not suffixed with a sequence number in consistent chronological order,MIDS is not suffixed with a sequence number in consistent chronological order,,Range & Limit,MIDS,MIDSTYPE = TM.MIDSTYPE and TM.TMRPT = 'Y',MIDS is suffixed with a sequence number in consistent chronological order,"
 Include:
 - Special-Purpose
","Domains:
 Include:
 - SM",SPC,,SM,"all:
 - name: TMRPT
 operator: equal_to
 value:  Y 
 - name: MIDS
 operator: #not suffixed with a sequence number in consistent chronological order
","- Name: TM
 Keys:
 - MIDSTYPE
",,,,3.4,Fully Executable,,,,,,,,1.0
CG0649,CDISC.SDTMIG.CG0649,CG0649,1.0,CG0649,1.0,CDISC,SDTMIG,3.4,2.0,7.4.2[Assumption 11],"7.4.2[Assumption 11]Some codelists used for TSVAL include terms which are also null flavors. For example, the Pharmaceutical Dosage Form codelist includes the values ""UNKNOWN"" and ""NOT APPLICABLE."" In such cases, TSVAL should have the term from the codelist and TSVALNF should be null.]|7.4.2.1[While it would be possible to allow a value such as NONE or UNBOUNDED to be entered in TSVAL, validation programs would then have to recognize this special term as an exception to the expected data format. Therefore, it was decided that a separate null flavor variable that uses the ISO 21090 null flavor terminology would be a better solution.] ",IG v3.4,7.4.2|7.4.2.1,New Rule due to a new assumption in 7.4.2. Replaces rule CG0459.,"- Cited Guidance: Some codelists used for TSVAL include terms which are also null flavors. For example, the Pharmaceutical Dosage Form codelist includes the values  UNKNOWN  and  NOT APPLICABLE. In such cases, TSVAL should have the term from the codelist and TSVALNF should be null. Document: SDTMIG v3.4 Item: Assumption 11 Section: 7.4.2 - Cited Guidance: While it would be possible to allow a value such as NONE or UNBOUNDED to be entered in TSVAL, validation programs would then",SDTM and SDTMIG Conformance Rules,Record,Error,,not implemented,,"Raise an error when TSVALNF is null, where TSVAL is not populated with values or synonyms of values in the ISO 21090 null flavor codelist (or other terms that can be represented as null flavors), unless the term is included in published terminology.",TSVALNF is populated when TSVAL populated with a value that is not in the ISO 21090 null flavor codelist.,,Range & Limit,TSVALNF,"TSVAL not populated with values or synonyms of values in the ISO 21090 null flavor codelist (or other terms that can be represented as null flavors), unless the term is included in published terminology.",TSVALNF = null,"
 Include:
 - Trial Design
","Domains:
 Include:
 - TS",TDM,,TS,"all:
 - name: TSVAL
 operator: is_not_contained_by
 value: ISO 21090 null flavor codelist
 - name: TSVALNF
 operator: non_empty",,,,,3.4,Partially Executable,,,,,,,,1.0
CG0610,CDISC.SDTMIG.CG0610,CG0610,1.0,CG0610,1.0,CDISC,SDTMIG,3.4,2.0,Assumption 1,"Culture characteristics covers concepts such as growth/no growth, colony quantification measures, colony color, colony morphology, etc.... MBTESTCD/MBTEST should be the name of the organism or group of organisms being characterized.",IG v3.4,6.3.5.7.1,New Rule (reflects topic of removed CG0192),"- Cited Guidance: Culture characteristics covers concepts such as growth/no growth, colony quantification measures, colony color, colony morphology, etc.... MBTESTCD/MBTEST should be the name of the organism or group of organisms being characterized. Document: SDTMIG v3.4 Item: Assumption 1 Section: 6.3.5.7.1",SDTM and SDTMIG Conformance Rules,Record,,,not implemented,,"If the test is for culture characteristics, verify that MBTEST equals the name of the organism/antigen being characterized.","Test is for culture characteristics, but MBTEST is not the name of the organism or group of organisms.",,Range & Limit,MBTEST,Test for culture characteristics,MBTEST = name of the organism or group of organisms,"
 Include:
 - Findings
","Domains:
 Include:
 - MB",FND,,MB,"all:
 - name: MBTEST
 operator: not_equal_to
 value: null
",,,,,3.4,Not Executable,,,,,,,,1.0
CG0609,CDISC.SDTMIG.CG0609,CG0609,1.0,CG0609,1.0,CDISC,SDTMIG,3.4,2.0,Assumption 1,"For non-targeted identification of organisms (i.e., tests that have the ability to identify a range of organisms without specifically targeting any), the value for MBTESTCD/MBTEST should be ""MCORGIDN""/""Microbial Organism Identification"", and the result should be the name of the organism or group of organisms found to be present.",IG v3.4,6.3.5.7.1,New Rule (reflects topic of removed CG0192),"- Cited Guidance: For non-targeted identification of organisms (i.e., tests that have the ability to identify a range of organisms without specifically targeting any), the value for MBTESTCD/MBTEST should be  MCORGIDN / Microbial Organism Identification , and the result should be the name of the organism or group of organisms found to be present. Document: SDTMIG v3.4 Item: Assumption 1 Section: 6.3.5.7.1",SDTM and SDTMIG Conformance Rules,Record,,,not implemented,,Verify MBTESTCD is  MCORGIDN  if the test is for a non-targeted identification of organisms.,"Test targets an organism, group of organisms, or antigen, but",,Range & Limit,MBTESTCD,Test for non-targeted identification of an organism,MBTESTCD='MCORGIDN',"
 Include:
 - Findings
","Domains:
 Include:
 - MB",FND,,MB,"all:
 - name: MBTESTCD
 operator: not_equal_to
 value: MCORGIDN",,,,,3.4,Not Executable,,,,,,,,1.0
CG0608,CDISC.SDTMIG.CG0608,CG0608,1.0,CG0608,1.0,CDISC,SDTMIG,3.4,2.0,Assumption 1,"In cases of tests that target an organism, group of organisms, or antigen for identification, MBTEST equals the name of the organism/antigen targeted by the identification assay, and MBTSTDTL should be “DETECTION”.",IG v3.4,6.3.5.7.1,New Rule (reflects topic of removed CG0192),"- Cited Guidance:  In cases of tests that target an organism, group of organisms,\ \ or antigen for identification, MBTEST equals the name of the organism/antigen\ \ targeted by the identification assay, and MBTSTDTL should be \u201CDETECTION\u201D\ .  Document: SDTMIG v3.4 Item: Assumption 1 Section: 6.3.5.7.1",SDTM and SDTMIG Conformance Rules,Record,,,not implemented,,"Verify MBTSTDTL is  DETECTION  if the tests targets an organism, group of organisms, or antigen.","Test targets an organism, group of organisms, or antigen, but MBTSTDTL is not  DETECTION",,Range & Limit,MBTSTDTL,"Test targets an organism, group of organisms, or antigen",MBTSTDTL='DETECTION',"
 Include:
 - Findings
","Domains:
 Include:
 - MB",FND,,MB,"all:
 - name: MBTSTDTL
 operator: not_equal_to
 value: DETECTION",,,,,3.4,Not Executable,,,,,,,,1.0
CG0607,CDISC.SDTMIG.CG0607,CG0607,1.0,CG0607,1.0,CDISC,SDTMIG,3.4,2.0,Assumption 1,"In cases of tests that target an organism, group of organisms, or antigen for identification, MBTEST equals the name of the organism/antigen targeted by the identification assay.",IG v3.4,6.3.5.7.1,New Rule (reflects topic of removed CG0192),"- Cited Guidance: In cases of tests that target an organism, group of organisms, or antigen for identification, MBTEST equals the name of the organism/antigen targeted by the identification assay. Document: SDTMIG v3.4 Item: Assumption 1 Section: 6.3.5.7.1",SDTM and SDTMIG Conformance Rules,Record,,,not implemented,,Verify MBTEST equals the name of the organism/antigen targeted by the identification assay.,"Test targets an organism, group of organisms, or antigen, but MBTEST is not the name of the organism/antigen.",,Range & Limit,MBTEST,"Test targets an organism, group of organisms, or antigen",MBTEST = name of the organism or antigen,"
 Include:
 - Findings
","Domains:
 Include:
 - MB",FND,,MB,"all:
 - name: MBTEST
 operator: not_equal_to
 value: null
",,,,,3.4,Not Executable,,,,,,,,1.0
CG0663,CDISC.SDTMIG.CG0663,CG0663,1.0,CG0663,1.0,CDISC,SDTMIG,3.4,2.0,,Associated Persons datasets are given a prefix of AP-- to identify the data as AP data to and distinguish them from study subject data. Associated Persons domain codes in the DOMAIN column of every record are also given a prefix of AP-- to identify the domains as AP domains and to distinguish them from study subject domains. AP domain codes are therefore four characters long.,AP Guide v1.0,2,Replaced rule CG0155 for SDTMIG v3.4. Removed FA from the exclusion list in the Domain column.,- Cited Guidance: Associated Persons datasets are given a prefix of AP-- to identify the data as AP data to and distinguish them from study subject data. Associated Persons domain codes in the DOMAIN column of every record are also given a prefix of AP-- to identify the domains as AP domains and to distinguish them from study subject domains. AP domain codes are therefore four characters long. Document: AP Guide v1.0 Section: Section 2,SDTM and SDTMIG Conformance Rules,Variable,Warning,,not implemented,,Raise an error when an AP Core Domain does not have a value length of 4 characters beginning with  AP  and ending with 2 character SDTM domain,AP Core Domain does not have a value length of 4 characters beginning with  AP  and ending with 2 character SDTM domain,,Range & Limit,DOMAIN,AP Core Domain,Value length = 4 characters beginning with 'AP' and ending with 2 character SDTM domain ,"
 Include:
 - All
","Domains:
 Include:
 - AP--
 Exclude:
 - APRELSUB
 - SUPP--
 - POOLDEF",AP,,"NOT(APRELSUB, POOLDEF)","any:
 # Fire query if domain name does not start with APFA and does not have the format  AP  followed by an alpha character, then an alphanum character
 - all:
 - name: DOMAIN
 operator: not_prefix_matches_regex
 prefix: 4
 value:  ^APFA$ 
 - name: DOMAIN
 operator: not_matches_regex
 value:  ^AP[A-Z][A-Z0-9]$ 
 # Fire query if domain name starts with APFA and is not followed by an alpha character, then an alphanum character
 - all:
 - name: DOMAIN
 operator: prefix_matches_regex",,,,,3.4,Fully Executable,,,,,,,,1.0
CG0527,CDISC.SDTMIG.CG0527,CG0527,1.0,CG0527,1.0,CDISC,SDTMIG,3.4,2.0,Assumption 6,"If multiple races are collected, then the value of RACE should be “MULTIPLE” and the additional information will be included in the Supplemental Qualifiers dataset.",IG v3.4,5.2,Retired for IGs after v3.4,"- Cited Guidance:  If multiple races are collected, then the value of RACE should\ \ be \u201CMULTIPLE\u201D and the additional information will be included in\ \ the Supplemental Qualifiers dataset.  Document: IG v3.4 Item: Assumption 6 Section:  5.2",SDTM and SDTMIG Conformance Rules,Record,Warning,,not implemented,,Trigger error when RACE does not equal  MULTIPLE  when multiple races collected and primary race not specified,RACE does not equal  MULTIPLE  when multiple races collected and primary race not specified,decision to retire this rule as we replaced by rule applying to DM and DC,Range & Limit,RACE,Multiple races collected and primary race not specified,RACE = 'MULTIPLE',"
 Include:
 - Special-Purpose
","Domains:
 Include:
 - DM",SPC,,DM,"all:
 - name: null
 operator: null
 - name: RACE
 operator: not_equal_to
 value: MULTIPLE",,,,,3.4,Not Executable,NSV / MSI,MSI: Carlo,Final,,,,,1.0
CG0526,CDISC.SDTMIG.CG0526,CG0526,1.0,CG0526,1.0,CDISC,SDTMIG,3.4,2.0,Assumption 6,"If a subject refuses to provide or does not know their race information, the value of RACE could be “UNKNOWN”. ",IG v3.4,5.2,,"- Cited Guidance:  If a subject refuses to provide or does not know their race information,\ \ the value of RACE could be \u201CUNKNOWN\u201D.   Document: IG v3.4 Item: Assumption 6 Section:  5.2",SDTM and SDTMIG Conformance Rules,Record,Warning,,not implemented,,Trigger error when subject does not specify race and RACE is not equal to  UNKNOWN,RACE is not equal to  UNKNOWN  when subject did not specify race,,Range & Limit,RACE,,Subject does not specify race,"
 Include:
 - Special-Purpose
","Domains:
 Include:
 - DM",SPC,,DM,"all:
 - name: null
 operator: null
 - name: RACE
 operator: not_equal_to
 value: UNKNOWN",,,,,3.4,Not Executable,,,,,,,,1.0
CG0525,CDISC.SDTMIG.CG0525,CG0525,1.0,CG0525,1.0,CDISC,SDTMIG,3.4,2.0,Assumption 6,"If the race was collected via an ""Other, Specify"" field and the sponsor chooses not to map the value as described in the current FDA guidance (see CDISC Notes for RACE in the domain specification), then the value of RACE should be “OTHER”.",IG v3.4,5.2,Retired as of IG v4.0.,"- Cited Guidance:  If the race was collected via an \ Other, Specify\  field and\ \ the sponsor chooses not to map the value as described in the current FDA guidance\ \ (see CDISC Notes for RACE in the domain specification), then the value of\ \ RACE should be \u201COTHER\u201D.  Document: IG v3.4 Item: Assumption 6 Section:  5.2",SDTM and SDTMIG Conformance Rules,Record,Warning,,not implemented,,"Trigger error when Sponsor collects Other, specify and chooses to map the value to SUPPDM, and NOT - RACE =  OTHER  or RACE =  MULTIPLE",???,"Rule retired for IGs after 3.4, replaced by a rule that addresses NS datasets",Range & Limit,RACE,"Sponsor collects Other, specify and chooses to map the value to SUPPDM",RACE = 'OTHER' or RACE = 'MULTIPLE',"
 Include:
 - Special-Purpose
","Domains:
 Include:
 - DM",SPC,,DM,"all:
 - name: null
 operator: null
 - name: RACE
 operator: not_equal_to
 value: UNKNOWN",,,,,3.4,Not Executable,NSV / MSI,MSI: Carlo,Final,,,,,1.0
CG0001,CDISC.SDTMIG.CG0001,CG0001,1.0,CG0001,1.0,CDISC,SDTMIG,3.4,2.0,,Using SDTM-specified standard domain names and prefixes where applicable,IG v3.4,3.2.2,Section and cited guidance updated.  Original cited guidance was for a custom domain.,- Cited Guidance: Using SDTM-specified standard domain names and prefixes where applicable. Document: SDTMIG v3.4 Section: 3.2.2,SDTM and SDTMIG Conformance Rules,Record,Notice,,not implemented,,DOMAIN name should use a SDTM-specified standard domain name and prefixes where applicable,"DOMAIN Code is not a published DOMAIN Code in CDISC Controlled Terminology, confirm if domain is a custom domain",,Range & Limit,DOMAIN,Not custom domain,DOMAIN = valid Domain Code published by CDISC,"
 Include:
 - All
","Domains:
 Include:
 - All",ALL,,ALL,"all:
 - name: DOMAIN
 operator: uses_valid_codelist_terms
 value: DOMAIN",,,,,3.4,Fully Executable,,,,Yes,"With access to CDISC Library, established domain codes per SDTMIG version should be available.",Conditional,Dependent on additional non-CDISC metadata,1.0
CG0160,CDISC.SDTMIG.CG0160,CG0160,1.0,CG0160,1.0,CDISC,SDTMIG,3.4,2.0,Specification,"If RSUBJID is populated, describes the relationship of the associated person(s) identified in APID to the subject or pool identified in RSUBJID. If RDEVID is populated, describes the relationship of the associated person(s) identified in APID to the device identified in RDEVID. If RSUBJID and RDEVID are null, SREL describes the relationship of the associated person(s) identified in APID to the study identified in STUDYID.",AP Guide v1.0,2.1.1,No Change,"- Cited Guidance: If RSUBJID is populated, describes the relationship of the associated person(s) identified in APID to the subject or pool identified in RSUBJID. If RDEVID is populated, describes the relationship of the associated person(s) identified in APID to the device identified in RDEVID. If RSUBJID and RDEVID are null, SREL describes the relationship of the associated person(s) identified in APID to the study identified in STUDYID. Document: AP Guide v1.0 Item: Specificat",SDTM and SDTMIG Conformance Rules,Record,Warning,,not implemented,,Trigger error when RSUBJID ^= null and SREL does not describe the relationship of associated person to study subject or pool,SREL does not describe the relationship of associated person to study subject or pool when RSUBJID is not null,,Range & Limit,SREL,RSUBJID ^= null,Describes relationship of associated person to study subject or pool,"
 Include: Associated Persons
","Domains:
 Include:
 - All",AP,,ALL,"all:
 - name: RSUBJID
 operator: non_empty
 - name: SREL
 operator: null",,,,,3.4,Not Executable,,,,,,Conditional,Dependent on additional appropriate metatdata,1.0
CG0161,CDISC.SDTMIG.CG0161,CG0161,1.0,CG0161,1.0,CDISC,SDTMIG,3.4,2.0,Specification,"If RSUBJID is populated, describes the relationship of the associated person(s) identified in APID to the subject or pool identified in RSUBJID. If RDEVID is populated, describes the relationship of the associated person(s) identified in APID to the device identified in RDEVID. If RSUBJID and RDEVID are null, SREL describes the relationship of the associated person(s) identified in APID to the study identified in STUDYID.",AP Guide v1.0,2.1.1,No Change,"- Cited Guidance: If RSUBJID is populated, describes the relationship of the associated person(s) identified in APID to the subject or pool identified in RSUBJID. If RDEVID is populated, describes the relationship of the associated person(s) identified in APID to the device identified in RDEVID. If RSUBJID and RDEVID are null, SREL describes the relationship of the associated person(s) identified in APID to the study identified in STUDYID. Document: AP Guide v1.0 Item: Specificat",SDTM and SDTMIG Conformance Rules,Record,Warning,,not implemented,,Trigger error when RDEVID ^= null and SREL does not describe relationship of associated person to device identified in RDEVID,SREL does not describe relationship of associated person to device identified in RDEVID when RDEVID ^= null,,Range & Limit,SREL,RDEVID ^= null,Describes relationship of associated person to device identified in RDEVID,"
 Include:
 - Associated Persons
","Domains:
 Include:
 - All",AP,,ALL,"all:
 - name: RDEVID
 operator: non_empty
 - name: SREL
 operator: null",,,,,3.4,Not Executable,,,,,,Conditional,Dependent on additional appropriate metatdata,1.0
CG0162,CDISC.SDTMIG.CG0162,CG0162,1.0,CG0162,1.0,CDISC,SDTMIG,3.4,2.0,Specification,"If RSUBJID is populated, describes the relationship of the associated person(s) identified in APID to the subject or pool identified in RSUBJID. If RDEVID is populated, describes the relationship of the associated person(s) identified in APID to the device identified in RDEVID. If RSUBJID and RDEVID are null, SREL describes the relationship of the associated person(s) identified in APID to the study identified in STUDYID.",AP Guide v1.0,2.1.1,No Change,"- Cited Guidance: If RSUBJID is populated, describes the relationship of the associated person(s) identified in APID to the subject or pool identified in RSUBJID. If RDEVID is populated, describes the relationship of the associated person(s) identified in APID to the device identified in RDEVID. If RSUBJID and RDEVID are null, SREL describes the relationship of the associated person(s) identified in APID to the study identified in STUDYID. Document: AP Guide v1.0 Item: Specificat",SDTM and SDTMIG Conformance Rules,Record,Warning,,not implemented,,Trigger error when RSUBJID = null and RDEVID = null and SREL does not describe the relationship of associated person to study identified in STUDYID,SREL does not describe the relationship of associated person to study identified in STUDYID when RSUBJID = null and RDEVID = null,,Range & Limit,SREL,RSUBJID = null and RDEVID = null,Describes relationship of associated person to study identified in STUDYID,"
 Include:
 - Associated Persons
","Domains:
 Include:
 - All",AP,,ALL,"all:
 - name: RSUBJID
 operator: is_empty
 - name: RDEVID
 operator: is_empty
 - name: SREL
 operator: null",,,,,3.4,Not Executable,,,,,,Conditional,Dependent on additional appropriate metatdata,1.0
CG0167,CDISC.SDTMIG.CG0167,CG0167,2.0,CG0167,1.0,CDISC,SDTMIG,3.4,2.0,Assumption 1,"The Comments special-purpose domain provides a solution for submitting free-text comments related to data in one or more SDTM domains (as described in Section 8.5, Relating Comments to a Parent Domain) or collected on a separate CRF page dedicated to comments. Comments are generally not responses to specific questions; instead, comments usually consist of voluntary, free-text or unsolicited observations.",IG v3.4,5.1,No Change,"- Cited Guidance: The Comments special-purpose domain provides a solution for submitting free-text comments related to data in one or more SDTM domains (as described in Section 8.5, Relating Comments to a Parent Domain) or collected on a separate CRF page dedicated to comments. Comments are generally not responses to specific questions; instead, comments usually consist of voluntary, free-text or unsolicited observations. Document: IG v3.4 Item: Assumption 1 Section:  5.1",SDTM and SDTMIG Conformance Rules,Record,Warning,,not implemented,,"Trigger error when comments are not unsolicited, free-text and voluntary","Comments are not unsolicited, free-text and voluntary","New version of rule.

GEN removed from Variable Name",Range & Limit,,,"Comments are unsolicited, free-text and voluntary","
 Include:
 - Special-Purpose
","Domains:
 Include:
 - CO",SPC,,CO,"all:
 - name: null
 operator: null
",,,,,3.4,Not Executable,Final Review,Carlo,Final,,,Conditional,Dependent on additional appropriate metatdata,1.0
CG0173,CDISC.SDTMIG.CG0173,CG0173,1.0,CG0173,1.0,CDISC,SDTMIG,3.4,2.0,,"When collected data fit a Qualifier variable listed in SDTM: Sections 3.1.1, 3.1.2, or 3.1.3, and are represented in the Findings About domain, then the name of the variable should be used as the value of FATESTCD.",IG v3.4,6.4.3,The cited SDTM sections have changed.  SDS-1655 was created to fix the text used for guidance.  The version here is correct,"- Cited Guidance:  When collected data fit a Qualifier variable listed in SDTM: Sections 3.1.1, 3.1.2, or 3.1.3, and are represented in the Findings About domain, then the name of the variable should be used as the value of FATESTCD.  Document: IG v3.4 Section: 6.4.3",SDTM and SDTMIG Conformance Rules,Record,Warning,,not implemented,,"Trigger error when collected data fits a Qualifier variable listed in SDTM Sections 2.2.1, 2.2.2, or 2.2.3, and are represented in the Findings About domain, and the name of the variable is used as FATESTCD","collected data fits a Qualifier variable listed in SDTM Sections 2.2.1, 2.2.2, or 2.2.3, and are represented in the Findings About domain, and the name of the variable is used as FATESTCD",,Range & Limit,FATESTCD,"Collected data fit a Qualifier variable listed in SDTM: Sections 2.2.1, 2.2.2, or 2.2.3, and are represented in the Findings About domain",The name of the variable is used as the value of FATESTCD.,"
 Include:
 - Findings
","Domains:
 Include:
 - FA",FND,,FA,"all:
 - name: null
 operator: null
 - name: null
 operator: null",,,,,3.4,Partially Executable,,,,,,Conditional,Dependent on additional appropriate metatdata,1.0
CG0174,CDISC.SDTMIG.CG0174,CG0174,1.0,CG0174,1.0,CDISC,SDTMIG,3.4,2.0,,"If an FA record does have a parent record, the value in FAOBJ should match the value in --TERM or --TRT, unless the parent domain is dictionary coded or subject to controlled terminology, in which case FAOBJ should match the value in --DECOD.",IG v3.4,6.4.3,No Change,"- Cited Guidance: If an FA record does have a parent record, the value in FAOBJ should match the value in --TERM or --TRT, unless the parent domain is dictionary coded or subject to controlled terminology, in which case FAOBJ should match the value in --DECOD. Document: IG v3.4 Section: 6.4.3",SDTM and SDTMIG Conformance Rules,Record,Warning,,not implemented,,"Trigger error when a related record is present in the parent domain dataset and FAOBJ is not in (--TERM, --TRT, --DECOD)","Related record is present in the parent domain dataset and FAOBJ is not in (--TERM, --TRT, --DECOD)",,Range & Limit,FAOBJ,Related record present in parent domain dataset,"FAOBJ in (--TERM, --TRT, --DECOD)","
 Include:
 - Findings
","Domains:
 Include:
 - FA",FND,,FA,"all:
 - name: null
 operator: null
 - name: FAOBJ
 operator: is_not_contained_by
 value:
 - --TERM
 - name: FAOBJ
 operator: is_not_contained_by
 value:
 - --TERM
 - name: FAOBJ
 operator: is_not_contained_by
 value:
 - --TERM",,,,,3.4,Fully Executable,,,,,,Conditional,Dependent on additional appropriate metatdata,1.0
CG0186,CDISC.SDTMIG.CG0186,CG0186,2.0,CG0186,2.0,CDISC,SDTMIG,3.4,2.0,Specification,Lower end of reference range for continuous measurement in original units.,IG v3.4,6.3.5.6,Updated wording of rule and section.,- Cited Guidance: Lower end of reference range for continuous measurement in original units. Document: SDTMIG v3.4 Section: 6.3.5.6,SDTM and SDTMIG Conformance Rules,Record,Warning,,not implemented,,LBORNRLO is expressed using the units in LBORRESU,LBORNRLO is not expressed using the units in LBORRESU,,Range & Limit,LBORNRLO,,LBORNRLO is expressed using the units in LBORRESU,"
 Include:
 - Findings
","Domains:
 Include:
 - LB",FND,,LB,"all:
 - name: LBORNRLO
 operator: equal_to
 value: LBORRESU
",,,,,3.4,Not Executable,,,,,,Conditional,Dependent on additional appropriate metatdata,1.0
CG0189,CDISC.SDTMIG.CG0189,CG0189,2.0,CG0189,2.0,CDISC,SDTMIG,3.4,2.0,Specification,Upper end of reference range for continuous measurements in standardized units.,IG v3.4,6.3.5.6,Updated wording of rule and section.,- Cited Guidance: Upper end of reference range for continuous measurements in standardized units. Document: IG v3.4 Item: Specification Section: 6.3.5.6,SDTM and SDTMIG Conformance Rules,Record,Warning,,not implemented,,Trigger error if LBSTNRHI is not expressed using the units in LBSTRESU,LBSTNRHI is not expressed using the units in LBSTRESU,,Range & Limit,LBSTNRHI,,LBSTNRHI is expressed using the units in LBSTRESU,"
 Include:
 - Findings
","Domains:
 Include:
 - LB",FND,,LB,"all:
 - name: LBSTRESU
 operator: non_empty
 - name: LBORRESU
 operator: equals
 value: LBSTRESU
 - name: LBORNRHI
 operator: not_equals
 value: LBSTNRHI",,,,,3.4,Not Executable,,,,,,Conditional,Dependent on additional appropriate metatdata,1.0
CG0190,CDISC.SDTMIG.CG0190,CG0190,2.0,CG0190,2.0,CDISC,SDTMIG,3.4,2.0,Specification,Reference Range for Char Rslt-Std Units,IG v3.4,6.3.5.6,Updated wording of rule and section.,- Cited Guidance: Reference Range for Char Rslt-Std Units Document: IG v3.4 Item: Specification Section: 6.3.5.6,SDTM and SDTMIG Conformance Rules,Record,Warning,,not implemented,,Trigger error if LBSTRESU is not null and LBSTNRC is not expressed using the units in LBSTRESU,LBSTNRC is not expressed using the units in LBSTRESU when LBSTRESU is populated.,,Range & Limit,LBSTNRC,LBSTRESU ^= null,LBSTNRC  is expressed using the units in LBSTRESU,"
 Include:
 - Findings
","Domains:
 Include:
 - LB",FND,,LB,"all:
 - name: LBSTRESU
 operator: non_empty
 - name: null
 operator: null
 value: null",,,,,3.4,Not Executable,,,,,,Yes,,1.0
CG0198,CDISC.SDTMIG.CG0198,CG0198,2.0,CG0198,1.0,CDISC,SDTMIG,3.4,2.0,,"Relationships represented in RELREC are collected relationships, either by explicit references or check boxes on the CRF, or by design of the CRF, such as vital signs captured during an exercise stress test.",IG v3.4,8.2,No Change,"- Cited Guidance: Relationships represented in RELREC are collected relationships, either by explicit references or check boxes on the CRF, or by design of the CRF, such as vital signs captured during an exercise stress test. Document: IG v3.4 Section:  8.2",SDTM and SDTMIG Conformance Rules,Record,Warning,,not implemented,,Trigger error when relationship represented in RELREC is not a collected relationship,Relationship represented in RELREC is not a collected relationship,"New version of Rule.

Corrected Class from Special Purpose to Relationship

Removed GEN from Variable Name",Range & Limit,,,Relationships represented in RELREC are collected relationships,"
 Include:
 - Special-Purpose
","Domains:
 Include:
 - RELREC",REL,,RELREC,"all:
 - name: null
 operator: null
 - name: null
 operator: null",,,,,3.4,Not Executable,Final Review,Carlo,Final,,,Conditional,Dependent on additional appropriate metatdata,1.0
CG0236,CDISC.SDTMIG.CG0236,CG0236,1.0,CG0236,1.0,CDISC,SDTMIG,3.4,2.0,,"For any domain based on the Findings general observation class, such as lab tests which are based on a specimen, the collection date is likely to be tied to when the specimen or source of the finding was captured, not necessarily when the data was recorded. in order to ensure that the critical timing information is always represented in the same variable, the --DTC variable is used to represent the time of specimen collection.",IG v3.4,4.4.8,No Change,"- Cited Guidance: For any domain based on the Findings general observation class, such as lab tests which are based on a specimen, the collection date is likely to be tied to when the specimen or source of the finding was captured, not necessarily when the data was recorded. in order to ensure that the critical timing information is always represented in the same variable, the --DTC variable is used to represent the time of specimen collection. Document: IG v3.4 Section: 4.4.8",SDTM and SDTMIG Conformance Rules,Record,Warning,,not implemented,,"Trigger error when --DTC is date/time of recording/acquisition, not date/time of specimen collection or observation","--DTC is date/time of recording/acquisition, not date/time of specimen collection or observation",,Range & Limit,--DTC,,"--DTC is date/time of specimen collection or observation, not date/time of recording/acquisition","
 Include:
 - Findings
","Domains:
 Include:
 - All",FND,,ALL,"all:
 - name: null
 operator: null
",,,,,3.4,Not Executable,,,,,,Conditional,Dependent on additional appropriate metatdata,1.0
CG0237,CDISC.SDTMIG.CG0237,CG0237,1.0,CG0237,1.0,CDISC,SDTMIG,3.4,2.0,,"For any domain based on the Findings general observation class, such as lab tests which are based on a specimen, the collection date is likely to be tied to when the specimen or source of the finding was captured, not necessarily when the data was recorded. in order to ensure that the critical timing information is always represented in the same variable, the --DTC variable is used to represent the time of specimen collection.",IG v3.4,4.4.8,No Change,"- Cited Guidance: For any domain based on the Findings general observation class, such as lab tests which are based on a specimen, the collection date is likely to be tied to when the specimen or source of the finding was captured, not necessarily when the data was recorded. in order to ensure that the critical timing information is always represented in the same variable, the --DTC variable is used to represent the time of specimen collection. Document: IG v3.4 Section: 4.4.8",SDTM and SDTMIG Conformance Rules,Record,Warning,,not implemented,,Trigger error when --DTC is present and not populated with the date/time of recording/data acquisition,--DTC is present in dataset and is not populated with the date/time of recording/data acquisition,,Range & Limit,--DTC,--DTC present in dataset,--DTC is date/time of recording/data acquisition,"
 Include:
 - Events
 - Interventions
","Domains:
 Include:
 - All","EVT, INT",,ALL,"all:
 - name: --DTC
 operator: exists
 - name: null
 operator: null",,,,,3.4,Not Executable,,,,,,Conditional,Dependent on additional appropriate metatdata,1.0
CG0253,CDISC.SDTMIG.CG0253,CG0253,1.0,CG0253,1.0,CDISC,SDTMIG,3.4,2.0,Assumption 1,"If inclusion/exclusion criteria were amended during the trial, then each complete set of criteria must be included in the TI domain. TIVERS is used to distinguish between the versions.",IG v3.4,7.4.1,No Change,"- Cited Guidance: If inclusion/exclusion criteria were amended during the trial, then each complete set of criteria must be included in the TI domain. TIVERS is used to distinguish between the versions. Document: IG v3.4 Item: Assumption 1 Section: 7.4.1",SDTM and SDTMIG Conformance Rules,Study,Warning,,not implemented,,Trigger error when TIVERS is null and there is more than one version of the IE criteria in study documentation,TIVERS is null when there is more than one version of the IE criteria in study documentation,,Range & Limit,TIVERS,Greater than one version of the IE criteria in study documentation,TIVERS ^= null,"
 Include:
 - Trial Design
","Domains:
 Include:
 - TI",TDM,,TI,"all:
 - name: null
 operator: null
 - name: TIVERS
 operator: is_empty",,,,,3.4,Not Executable,,,,,,Conditional,Dependent on additional appropriate metatdata,1.0
CG0197,CDISC.SDTMIG.CG0197,CG0197,1.0,CG0197,1.0,CDISC,SDTMIG,3.4,2.0,Specification,"If there are findings for a body system, then either the dictionary preferred term (if findings are coded using a dictionary) or PEORRES (if findings are not encoded) should appear here.",IG v3.4,6.3.8,Section change in SDTMIG v3.4,"- Cited Guidance: If there are findings for a body system, then either the dictionary preferred term (if findings are coded using a dictionary) or PEORRES (if findings are not encoded) should appear here. Document: IG v3.4 Item: Specification Section: 6.3.8",SDTM and SDTMIG Conformance Rules,Record,Warning,,not implemented,,Trigger error when PESTRESC ^= null but PESTRESC does not equal PEORRES OR a dictionary coded preferred term,PESTRESC does not equal PEORRES OR a dictionary coded preferred term,,Range & Limit,PESTRESC,PESTRESC ^= null,PESTRESC = PEORRES OR a dictionary coded preferred term,"
 Include:
 - Findings
","Domains:
 Include:
 - PE",FND,,PE,"all:
 - name: PESTRESC
 operator: non_empty
 - any:
 - name: PESTRESC
 operator: equal_to
 value: PEORRES
 - name: PESTRES
 operator: is_contained_by
 value: null",,,- PESTRESC,,3.4,Not Executable,,,,,,Yes,,1.0
CG0148,CDISC.SDTMIG.CG0148,CG0148,2.0,CG0148,2.0,CDISC,SDTMIG,3.4,2.0,Specification,"First date/time of exposure to any protocol-specified treatment or therapy, equal to the earliest value of EXSTDTC.",IG v3.4,5.2,"""for that subject"" was removed from the rule and the rule version increased to #2.  The condition was also changed to match CG0147: ""EX records present for subject""","- Cited Guidance: First date/time of exposure to any protocol-specified treatment or therapy, equal to the earliest value of EXSTDTC. Document: IG v3.4 Item: Specification Section:  5.2",SDTM and SDTMIG Conformance Rules,Record,Warning,,not implemented,,Raise an error when EX records are present for subject but RFXSTDTC does not equal the earliest value of EX.EXSTDTC,RFXSTDTC does not equal the earliest value of EX.EXSTDTC,,Range & Limit,RFXSTDTC,EX records present for subject,RFXSTDTC = earliest EX.EXSTDTC,"
 Include:
 - Special-Purpose
","Domains:
 Include:
 - DM",SPC,,DM,"all:
 - name: USUBJID
 operator: is_contained_by
 value: $ex_usubjid
 - name: RFXSTDTC
 operator: not_equal_to
 value: $min_ex_exstdtc",,"- operator: distinct
 domain: EX
 name: USUBJID
 id: $ex_usubjid
 - operator: min_date 
 domain: EX
 name: EXSTDTC
 id: $min_ex_exstdtc
 group:
 - USUBJID",- RFXSTDTC - $min_ex_exstdtc,,3.4,Fully Executable,,,,,,Yes,,1.0
CG0011,CDISC.SDTMIG.CG0011,CG0011,2.0,CG0011,1.0,CDISC,SDTMIG,3.4,2.0,,"Following SDTM-specified controlled terminology and format guidelines for variables, when provided",IG v3.4,3.2.2,No Change,"- Cited Guidance: Following SDTM-specified controlled terminology and format guidelines for variables, when provided Document: IG v3.4 Section: 3.2.2",SDTM and SDTMIG Conformance Rules,Dataset,Warning,,not implemented,,Trigger error when variable format does not match SDTM-specified controlled terminology or format guidelines for variables (when provided),Variable format does not match SDTM-specified controlled terminology or format guidelines for variables (when provided),"New version of rule.

GEN removed from Variable Name, replaced with ALL",Range & Limit,ALL,,"Variable Format = SDTM-specified controlled terminology and format guidelines for variables, when provided","
 Include:
 - All
","Domains:
 Include:
 - All",ALL,,ALL,"all:
 - name: null
 operator: not_equal_to
 value: null
",,,,,3.4,Fully Executable,Final Review,Carlo,Final,,,Yes,,1.0
CG0020,CDISC.SDTMIG.CG0020,CG0020,2.0,CG0020,1.0,CDISC,SDTMIG,3.4,2.0,,"3.2.2[Conformance with the SDTMIG Domain Models is minimally indicated by following SDTM-specified controlled terminology and format guidelines for variables, when provided]|4.2.8.3[The SDTM permits one value for each Qualifier variable per record. If multiple values exist (e.g., due to a ""Check all that apply"" instruction on a CRF), then the value for the Qualifier variable should be ""MULTIPLE"" and SUPP-- should be used to store the individual responses.]",IG v3.4,3.2.2|4.2.8.3,,"- Cited Guidance: Conformance with the SDTMIG Domain Models is minimally indicated by following SDTM-specified controlled terminology and format guidelines for variables, when provided Document: IG v3.4 Section: 3.2.2 - Cited Guidance: The SDTM permits one value for each Qualifier variable per record. If multiple values exist (e.g., due to a  Check all that apply  instruction on a CRF), then the value for the Qualifier variable should be  MULTIPLE  and SUPP-- should be used to",SDTM and SDTMIG Conformance Rules,Record,Warning,,not implemented,,"Trigger error if the value of a variable, which is associated with an extensible codelist, is in the associated codelist or equal to  MULTIPLE","Variable is not equal to value within the extensible codelist, nor equal to MULTIPLE","New version of rule.

GEN removed from Variable Name, replaced with ALL",Range & Limit,ALL,Use of value 'MULTIPLE' is appropriate to the data being represented,Value in associated codelist or 'MULTIPLE',"
 Include:
 - All
","Domains:
 Include:
 - All",ALL,,ALL,"all:
 - name: null
 operator: null
 - name: null
 operator: is_not_contained_by
 value:
 - codelist
 - name: null
 operator: not_equal_to
 value: MULTIPLE",,,,,3.4,Not Executable,Final Review,Carlo,Final,,,Yes,,1.0
CG0021,CDISC.SDTMIG.CG0021,CG0021,2.0,CG0021,1.0,CDISC,SDTMIG,3.4,2.0,,"3.2.2[Conformance with the SDTMIG Domain Models is minimally indicated by following SDTM-specified controlled terminology and format guidelines for variables, when provided]|4.2.7.1[When the CRF includes a list of values for a qualifier field that includes ""Other"" and the ""Other"" is supplemented with a ""Specify"" free text field,]",IG v3.4,3.2.2|4.2.7.1,No Change,"- Cited Guidance: Conformance with the SDTMIG Domain Models is minimally indicated by following SDTM-specified controlled terminology and format guidelines for variables, when provided Document: IG v3.4 Section: 3.2.2 - Cited Guidance: When the CRF includes a list of values for a qualifier field that includes  Other  and the  Other  is supplemented with a  Specify  free text field Document: IG v3.4 Item: null Section: 4.2.7.1",SDTM and SDTMIG Conformance Rules,Record,Error,,not implemented,,"Trigger error if the value of a variable, which is associated with an extensible codelist, is in the associated codelist or equal to  OTHER","Variable is not equal to value within the extensible codelist, nor equal to OTHER","New version of rule.

GEN removed from Variable Name, replaced with ALL",Range & Limit,ALL,Variable associated with extensible codelist and the use of value 'OTHER' is appropriate to the data being represented,Value in associated codelist or 'OTHER',"
 Include:
 - All
","Domains:
 Include:
 - All",ALL,,ALL,"all:
 - name: null
 operator: null
 - name: null
 operator: is_not_contained_by
 value:
 - codelist
 - name: null
 operator: not_equal_to
 value: OTHER",,,,,3.4,Not Executable,Final Review,Carlo,Final,,,Yes,,1.0
CG0026,CDISC.SDTMIG.CG0026,CG0026,1.0,CG0026,1.0,CDISC,SDTMIG,3.4,2.0,--RFTDTC,"The actual date or date and time of a time point that acts as a fixed reference for a series of planned time points, represented in a standardized character format. The fixed reference point is in --TPTREF.",Model v2.0,Timing,Cited guidance updated. Reference to model section and item updated per new style.,"- Cited Guidance:  The actual date or date and time of a time point that acts as a fixed reference for a series of planned time points, represented in a standardized character format. The fixed reference point is in --TPTREF  Document: Model v2.0 Item:  --RFTDTC  Section: Timing",SDTM and SDTMIG Conformance Rules,Record,Error,,not implemented,,Trigger error when --TPTREF = null and --RFTDTC is populated,--RFTDTC is populated when --TPTREF is null,,Range & Limit,--RFTDTC,--TPTREF = null,--RFTDTC = null,"
 Include:
 - All
","Domains:
 Include:
 - All",ALL,,ALL,"all:
 - name:  --TPTREF 
 operator: empty
 - name:  --RFTDTC 
 operator: exists
 - name:  --RFTDTC 
 operator: non_empty",,,,,3.4,Fully Executable,,,,,,Yes,,1.0
CG0071,CDISC.SDTMIG.CG0071,CG0071,1.0,CG0071,1.0,CDISC,SDTMIG,3.4,2.0,Assumption 3b,"When DSCAT = ""DISPOSITION EVENT"" DSTERM contains either ""COMPLETED"" or, if the subject did not complete, specific verbatim information about the reason for non-completion",IG v3.4,6.2.4,Cited guidance section updated.,"- Cited Guidance: When DSCAT =  DISPOSITION EVENT  DSTERM contains either  COMPLETED  or, if the subject did not complete, specific verbatim information about the reason for non-completion Document: IG v3.4 Item: Assumption 3b Section: 6.2.4",SDTM and SDTMIG Conformance Rules,Record,Warning,,not implemented,,Trigger error when DSCAT =  DISPOSITION EVENT  and DSTERM does not equal  COMPLETED  or the reason for discontinuation,DSTERM does not equal  COMPLETED  or the reason for discontinuation when DSCAT =  DISPOSITION EVENT,,Range & Limit,DSTERM,DSCAT = 'DISPOSITION EVENT',DSTERM = 'COMPLETED' or the reason for discontinuation,"
 Include:
 - Events
","Domains:
 Include:
 - DS",EVT,,DS,"all:
 - name: null
",,,,,3.4,Not Executable,,,,,,Conditional,Dependent on additional non-CDISC metadata,1.0
CG0097,CDISC.SDTMIG.CG0097,CG0097,1.0,CG0097,1.0,CDISC,SDTMIG,3.4,2.0,Specification,Verbatim medication name that is either pre-printed or collected on a CRF.,IG v3.4,6.1.2,No Change,- Cited Guidance: Verbatim medication name that is either pre-printed or collected on a CRF. Document: IG v3.4 Item: Specification Section: 6.1.2,SDTM and SDTMIG Conformance Rules,Record,Warning,,not implemented,,Trigger error if CMTRT was not collected on CRF,CMTRT was not collected on CRF,,Range & Limit,CMTRT,,CMTRT = collected on CRF,"
 Include:
 - Interventions
","Domains:
 Include:
 - CM",INT,,CM,"all:
 - name: null
 operator: null
 - name: null
 operator: null",,,,,3.4,Partially Executable,,,,,,Conditional,Dependent on additional non-CDISC metadata,1.0
CG0104,CDISC.SDTMIG.CG0104,CG0104,1.0,CG0104,1.0,CDISC,SDTMIG,3.4,2.0,Specification,Name of the protocol-specified study treatment given during the dosing period for the observation.,IG v3.4,6.1.3.1,No Change,- Cited Guidance: Name of the protocol-specified study treatment given during the dosing period for the observation. Document: IG v3.4 Item: Specification Section: 6.1.3.1,SDTM and SDTMIG Conformance Rules,Study,Warning,,not implemented,,Trigger error if EXTRT is not the protocol-specified treatment,EXTRT is not a protocol-specified treatment,,Range & Limit,EXTRT,,EXTRT = protocol-specified treatment,"
 Include:
 - Interventions
","Domains:
 Include:
 - EX",INT,,EX,"all:
 - name: EXTRT
 operator: not_equal_to
 value: TS.TSVAL
 - name: TS.TSPARMCD
 operator: starts_with
 value: TRT
",,,,,3.4,Not Executable,,,,,,Conditional,Dependent on additional non-CDISC metadata,1.0
CG0147,CDISC.SDTMIG.CG0147,CG0147,1.0,CG0147,1.0,CDISC,SDTMIG,3.4,2.0,Specification,Equal to the latest value of EXENDTC (or the latest value of EXSTDTC if EXENDTC was not collected or is missing).,IG v3.4,5.2,No Change,- Cited Guidance: Equal to the latest value of EXENDTC (or the latest value of EXSTDTC if EXENDTC was not collected or is missing). Document: IG v3.4 Item: Specification Section:  5.2,SDTM and SDTMIG Conformance Rules,Record,Warning,,not implemented,,Raise an error when EX records are present for subject but RFXENDTC does not equal the latest value of EX.EXSTDTC or EX.EXENDTC,RFXENDTC does not equal the latest value of EX.EXSTDTC or EX.EXENDTC,,Range & Limit,RFXENDTC,EX records present for subject,RFXENDTC = latest value of EX.EXSTDTC or EX.EXENDTC,"
 Include:
 - Special-Purpose
","Domains:
 Include:
 - DM",SPC,,DM,"all:
 - name: USUBJID
 operator: is_contained_by
 value: $ex_usubjid
 - name: RFXENDTC
 operator: not_equal_to
 value: $max_ex_exstdtc
 - name: RFXENDTC
 operator: not_equal_to
 value: $max_ex_exendtc",,"- operator: distinct
 domain: EX
 name: USUBJID
 id: $ex_usubjid
 - operator: max_date 
 domain: EX
 name: EXSTDTC
 id: $max_ex_exstdtc
 group:
 - USUBJID 
 - operator: max_date 
 domain: EX
 name: EXENDTC
 id: $max_ex_exendtc
 group:
 - USUBJID",- RFXENDTC - $max_ex_exstdtc - $max_ex_exendtc,,3.4,Fully Executable,,,,,,Yes,,1.0
CG0288,CDISC.SDTMIG.CG0288,CG0288,1.0,CG0288,1.0,CDISC,SDTMIG,3.4,2.0,Specification,"The version number of the Reference Terminology, if applicable.",IG v3.4,7.4.2,No Change,"- Cited Guidance: The version number of the Reference Terminology, if applicable. Document: IG v3.4 Item: Specification Section: 7.4.2",SDTM and SDTMIG Conformance Rules,Record,Warning,,not implemented,,Trigger error when TSVCDREF= CDISC  and TSVALCD is not a valid code in the version identified in TSVCDVER,TSVALCD is not a valid code in the version identified in TSVCDVER,,Range & Limit,TSVALCD,TSVCDREF = 'CDISC',TSVALCD = valid code in the  version identified in TSVCDVER,"
 Include:
 - Trial Design
","Domains:
 Include:
 - TS",TDM,,TS,"all:
 - name: TSVCDREF
 operator: equal_to
 value: CDISC
 - name: TSVALCD
 operator: is_contained_by
 value: null
",,,,,3.4,Fully Executable,,,,,,Yes,,1.0
CG0188,CDISC.SDTMIG.CG0188,CG0188,2.0,CG0188,2.0,CDISC,SDTMIG,3.4,2.0,Specification,Lower end of reference range for continuous measurements for LBSTRESC/LBSTRESN in standardized units.,IG v3.4,6.3.5.6,Updated wording of rule and section.,- Cited Guidance: Lower end of reference range for continuous measurements for LBSTRESC/LBSTRESN in standardized units. Document: IG v3.4 Item: Specification Section: 6.3.5.6,SDTM and SDTMIG Conformance Rules,Record,Warning,,not implemented,,Trigger error if LBORNRLO is not expressed using the units in LBSTRESU,LBORNRLO is not expressed using the units in LBSTRESU,,Range & Limit,LBSTNRLO,,LBSTNRLO  is expressed using the units in LBSTRESU,"
 Include:
 - Findings
","Domains:
 Include:
 - LB",FND,,LB,"all:
 - name: LBSTRESU
 operator: non_empty
 - name: LBORRESU
 operator: equals
 value: LBSTRESU
 - name: LBORNRLO
 operator: not_equals
 value: LBSTNRLO",,,,,3.4,Not Executable,,,,,,Conditional,Dependent on additional appropriate metatdata,1.0
CG0324,CDISC.SDTMIG.CG0324,CG0324,1.0,CG0324,1.0,CDISC,SDTMIG,3.4,2.0,Assumption 13,"The Trial Arms dataset, not the Trial Elements dataset, describes where the subject moves next, so TEENRL must be expressed without referring to Arm.",IG v3.4,7.2.2,No Change,"- Cited Guidance: The Trial Arms dataset, not the Trial Elements dataset, describes where the subject moves next, so TEENRL must be expressed without referring to Arm. Document: IG v3.4 Item: Assumption 13 Section: 7.2.2",SDTM and SDTMIG Conformance Rules,Record,Warning,,not implemented,,TEENRL should not reference a specific ARM. This rule has only been partially executed to identify explicit references to ARM.,TEENRL refers to a specific ARM,,Range & Limit,TEENRL,,TEENRL value does not refer to any specific ARM,"
 Include:
 - Study Reference
","Domains:
 Include:
 - TE",TDM,,TE,"all:
 - name: TEENRL
 operator: contains
 value: $ta_arm
",,"- domain: TA
 id: $ta_arm
 name: ARM
 operator: distinct
",,,3.4,Not Executable,,,,,,Conditional,Dependent on additional appropriate metatdata,1.0
CG0347,CDISC.SDTMIG.CG0347,CG0347,1.0,CG0347,1.0,CDISC,SDTMIG,3.4,2.0,,"If multiple result values (--ORRES) are reported for a test in a Findings class dataset, multiple records should be submitted for that --TESTCD. When a finding can have multiple results, the key structure for the findings dataset must be adequate to distinguish between the multiple results.  See Section 4.1.9 Assigning Natural Keys in the Metadata.",IG v3.4,4.2.8.2,No Change,"- Cited Guidance: If multiple result values (--ORRES) are reported for a test in a Findings class dataset, multiple records should be submitted for that --TESTCD. When a finding can have multiple results, the key structure for the findings dataset must be adequate to distinguish between the multiple results. See Section 4.1.9 Assigning Natural Keys in the Metadata. Document: IG v3.4 Section: 4.2.8.2",SDTM and SDTMIG Conformance Rules,Record,Warning,,not implemented,,"Trigger error when --ORRES is equal to MULTIPLE when it is not a valid response in the context of the finding (e.g., Questionnaire CT)","--ORRES is equal to MULTIPLE when it is not a valid response in the context of the finding (e.g., Questionnaire CT)",,Range & Limit,--ORRES,"The use of 'MULTIPLE' reflects multiple values (as opposed to a valid response in the context of the finding (e.g., Questionnaire CT).",--ORRES ^ = 'MULTIPLE',"
 Include:
 - Findings
","Domains:
 Include:
 - All",FND,,ALL,"all:
 - name: --ORRES
 operator: not_contained_by
 value:
 - Questionnaire CT
 - name: --ORRES
 operator: equals
 value: MULTIPLE",,,,,3.4,Not Executable,,,,,,Conditional,Dependent on additional appropriate metatdata,1.0
CG0323,CDISC.SDTMIG.CG0323,CG0323,1.0,CG0323,1.0,CDISC,SDTMIG,3.4,2.0,Assumption 9,"TESTRL should be expressed without referring to Epoch. If the Element appears in more than one Epoch in the Trial Arms dataset, then the Element description (ELEMENT) must not refer to any Epochs.",IG v3.4,7.2.2,No Change,"- Cited Guidance: TESTRL should be expressed without referring to Epoch. If the Element appears in more than one Epoch in the Trial Arms dataset, then the Element description (ELEMENT) must not refer to any Epochs. Document: IG v3.4 Item: Assumption 9 Section: 7.2.2",SDTM and SDTMIG Conformance Rules,Record,Warning,,not implemented,,"When ELEMENT is associated with more than 1 EPOCH, ELEMENT should not refer to a specific EPOCH.",ELEMENT refers to a specific EPOCH when ELEMENT is associated with more than 1 EPOCH,,Range & Limit,ELEMENT,ELEMENT is associated with > 1 EPOCH,ELEMENT value does not refer to any specific EPOCH,"
 Include:
 - Trial Design
","Domains:
 Include:
 - TA
 - TE",TDM,,"TE, TA","all:
 - name: $ta_element
 operator: is_not_unique_relationship
 value: $ta_epoch
 - name: ELEMENT
 operator: contains
 value: $ta_epoch",,"- domain: TA
 id: $ta_element
 name: ELEMENT
 operator: distinct
 - domain: TA
 id: $ta_epoch
 name: EPOCH
 operator: distinct",,,3.4,Not Executable,,,,,,Conditional,Dependent on additional appropriate metatdata,1.0
CG0322,CDISC.SDTMIG.CG0322,CG0322,1.0,CG0322,1.0,CDISC,SDTMIG,3.4,2.0,Assumption 8,"TESTRL should be expressed without referring to Arm. If the Element appears in more than one Arm in the Trial Arms dataset, then the Element description (ELEMENT) must not refer to any Arms",IG v3.4,7.2.2,No Change,"- Cited Guidance: TESTRL should be expressed without referring to Arm. If the Element appears in more than one Arm in the Trial Arms dataset, then the Element description (ELEMENT) must not refer to any Arms Document: IG v3.4 Item: Assumption 8 Section: 7.2.2",SDTM and SDTMIG Conformance Rules,Record,Warning,,not implemented,,"When ELEMENT is associated with more than 1 arm, the ELEMENT value must not refer to a specific ARM",ELEMENT value refers to a specific ARM when ELEMENT is associated with more than 1 arm,,Range & Limit,ELEMENT,ELEMENT is associated with > 1 ARM,ELEMENT value does not refer to any specific ARM,"
 Include:
 - Trial Design
","Domains:
 Include:
 - TE",TDM,,"TE, TA","all:
 - name: ELEMENT
 operator: contains
 value: ARM
","- Name: TA
 Keys:
 - ARM
",,,,3.4,Not Executable,,,,,,Conditional,Dependent on additional appropriate metatdata,1.0
CG0377,CDISC.SDTMIG.CG0377,CG0377,1.0,CG0377,1.0,CDISC,SDTMIG,3.4,2.0,--LLT,The lowest-level term assigned to the event from MedDRA.,Model v2.0,Events,Cited guidance updated. Reference to model section and item updated per new style.,- Cited Guidance: The lowest-level term assigned to the event from MedDRA. Document: Model v2.0 Item: --LLT Section: Events,SDTM and SDTMIG Conformance Rules,Record,Warning,,not implemented,,Trigger error when --LLT is not a valid MedDRA lowest level TERM,--LLT is not a valid MedDRA lowest level TERM,,Range & Limit,--LLT,,--LLT = MedDRA lowest level TERM,"
 Include:
 - Events
","Domains:
 Include:
 - AE
 - MH
 - CE",EVT,,"AE, MH, CE","all:
 - name: --LLT
 operator: is_contained_by
 value:
 - MedDRA lowest level TERM
",,,,,3.4,Fully Executable,,,,,,Conditional,MedDRA dictionary available ,1.0
CG0375,CDISC.SDTMIG.CG0375,CG0375,1.0,CG0375,1.0,CDISC,SDTMIG,3.4,2.0,Specification,A reference to the date variable name that provides the start point from which the planned disease assessment schedule is measured. This must be referenced from the ADaM ADSL dataset e.g. ANCH1DT. Note: TDANCVAR is to contain the name of a reference date variable name.,IG v3.4,7.3.2,Section change in SDTMIG v3.4,- Cited Guidance:  A reference to the date variable name that provides the start point from which the planned disease assessment schedule is measured. This must be referenced from the ADaM ADSL dataset e.g. ANCH1DT. Note: TDANCVAR is to contain the name of a reference date variable name.  Document: IG v3.4 Item: Specification Section: 7.3.2,SDTM and SDTMIG Conformance Rules,Record,Warning,,not implemented,,Trigger error when TDANCVAR is not a date variable name in ADSL,TDANCVAR is not valid,,Range & Limit,TDANCVAR,,TDANCVAR = date variable name in ADSL,"
 Include:
 - Trial Design
","Domains:
 Include:
 - TD",TDM,,TD,"all:
 - name: TDANCVAR
 operator: is_not_contained_by
 value:  [date variable name in ADSL]",,,,,3.4,Not Executable,,,,,,Conditional,ADSL dataset available,1.0
CG0298,CDISC.SDTMIG.CG0298,CG0298,1.0,CG0298,1.0,CDISC,SDTMIG,3.4,2.0,Specification,Protocol-defined description of clinical encounter.,IG v3.4,7.3.1,No Change,- Cited Guidance: Protocol-defined description of clinical encounter. Document: IG v3.4 Item: Specification Section: 7.3.1,SDTM and SDTMIG Conformance Rules,Record,Warning,,not implemented,,Trigger error when a visit is not described in the protocol,VISIT is not described in the protocol,,Range & Limit,VISIT,,VISIT is described in protocol,"
 Include:
 - Trial Design
","Domains:
 Include:
 - TV",TDM,,TV,"all:
 - name: null
 operator: null
",,,,,3.4,Not Executable,,,,,,Conditional,Dependent on additional non-CDISC metadata,1.0
CG0399,CDISC.SDTMIG.CG0399,CG0399,1.0,CG0399,1.0,CDISC,SDTMIG,3.4,2.0,--ULOQ,Units will be those used for --STRESU.,Model v2.0,Findings,Cited guidance updated. Reference to model section and item updated per new style.,- Cited Guidance: Units will be those used for --STRESU. Document: Model v2.0 Item: --ULOQ Section: Findings,SDTM and SDTMIG Conformance Rules,Record,Warning,,not implemented,,Trigger error when --ULOQ is not expressed using the units in --STRESU,--ULOQ is not expressed using the units in --STRESU,,Range & Limit,--ULOQ,--ULOQ present in dataset,--ULOQ is expressed using the units in --STRESU,"
 Include:
 - Findings
","Domains:
 Include:
 - All",FND,,ALL,"all:
 - name: --ULOQ
 operator: exists
 - name: null
 operator: null",,,,,3.4,Not Executable,,,,,,Conditional,Dependent on additional appropriate metatdata,1.0
CG0351,CDISC.SDTMIG.CG0351,CG0351,2.0,CG0351,1.0,CDISC,SDTMIG,3.4,2.0,,Using SDTM-specified standard variable names,IG v3.2,3.2.2,No Change,- Cited Guidance: Using SDTM-specified standard variable names Document: IG v3.2 Item: null Section: 3.2.2,SDTM and SDTMIG Conformance Rules,Value,Warning,,not implemented,,Trigger error when a variable in Model List of Allowed Variables for Observation Class is in SUPPQUAL,Variable within SUPPQUAL is in Model List of Allowed Variables for Observation Class,"New version of rule.

GEN removed from Variable Name, replaced with ALL",Range & Limit,ALL,,Variables not in Model List of Allowed Variables for Observation Class are in SUPPQUAL,"
 Include:
 - All
","Domains:
 Include:
 - All",ALL,,ALL,"all:
 - name: null
 operator: null
 - name: QNAM
 operator: is_contained_by
 value:
 - Model List of Allowed Variables for Observation Class",,,,,3.4,Fully Executable,Final Review,Carlo,Final,,,Yes,,1.0
CG0222,CDISC.SDTMIG.CG0222,CG0222,1.0,CG0222,1.0,CDISC,SDTMIG,3.4,2.0,,"The permissible Study Day variables (--DY, --STDY, and --ENDY) describe the relative day of the observation starting with the reference date as Day 1. They are determined by comparing the date portion of the respective date/time variables (--DTC, --STDTC, and --ENDTC) to the date portion of the Subject Reference Start Date (RFSTDTC from the Demographics domain).][All Study Day values are integers. Thus, to calculate Study Day: --DY = (date portion of --DTC) - (date portion of RFSTDTC) + 1 if --DTC is on or after RFSTDTC, --DY = (date portion of --DTC) - (date portion of RFSTDTC) if --DTC precedes RFSTDTC. This algorithm should be used across all domains.",IG v3.4,4.4.4,No Change,"- Cited Guidance:  The permissible Study Day variables (--DY, --STDY, and --ENDY) describe the relative day of the observation starting with the reference date as Day 1. They are determined by comparing the date portion of the respective date/time variables (--DTC, --STDTC, and --ENDTC) to the date portion of the Subject Reference Start Date (RFSTDTC from the Demographics domain). All Study Day values are integers. Thus, to calculate Study Day, --DY = (date portion of --DTC) - (dat",SDTM and SDTMIG Conformance Rules,Record,Warning,,success,invalid,Trigger error if --ENDY is not properly calculated per study day algorithm.,--ENDY is not properly calculated per study day algorithm,,Range & Limit,--ENDY,--ENDTC and DM.RFSTDTC both contain complete values in their date portion,--ENDY is properly calculated per study day algorithm,"
 Include:
 - All
","Domains:
 Include:
 - All",ALL,,ALL,"all:
 #Restrict check to records where --ENDTC has a complete date and RFSTDTC has a complete date
 - name: --ENDTC
 operator: is_complete_date
 - name: RFSTDTC
 operator: is_complete_date
 #Check --ENDY derivation ( dy  operator??)
 - any:
 - all:
 - name: datepart(--ENDTC)
 operator: greater_than_or_equal_to
 value: datepart(DM.RFSTDTC)
 - name: --ENDY
 operator: equal_to
 value: datepart(--ENDTC)-datepart(DM.RFSTDTC)+1
 - all:
 - name: datepart(--ENDTC)
 operator: less_than","- Name: DM
 Keys:
 -  USUBJID 
",,,,3.4,Fully Executable,,,,,,Yes,,1.0
CG0220,CDISC.SDTMIG.CG0220,CG0220,1.0,CG0220,1.0,CDISC,SDTMIG,3.4,2.0,,"The permissible Study Day variables (--DY, --STDY, and --ENDY) describe the relative day of the observation starting with the reference date as Day 1. They are determined by comparing the date portion of the respective date/time variables (--DTC, --STDTC, and --ENDTC) to the date portion of the Subject Reference Start Date (RFSTDTC from the Demographics domain).][All Study Day values are integers. Thus, to calculate Study Day: --DY = (date portion of --DTC) - (date portion of RFSTDTC) + 1 if --DTC is on or after RFSTDTC, --DY = (date portion of --DTC) - (date portion of RFSTDTC) if --DTC precedes RFSTDTC. This algorithm should be used across all domains.",IG v3.4,4.4.4,No Change,"- Cited Guidance:  The permissible Study Day variables (--DY, --STDY, and --ENDY) describe the relative day of the observation starting with the reference date as Day 1. They are determined by comparing the date portion of the respective date/time variables (--DTC, --STDTC, and --ENDTC) to the date portion of the Subject Reference Start Date (RFSTDTC from the Demographics domain). All Study Day values are integers. Thus, to calculate Study Day, --DY = (date portion of --DTC) - (dat",SDTM and SDTMIG Conformance Rules,Record,Warning,,success,invalid,Trigger error if --STDY is not properly calculated,--STDY is not properly calculated per study day algorithm,,Range & Limit,--STDY,--STDTC and DM.RFSTDTC both contain complete values in their date portion,--STDY is properly calculated per study day algorithm,"
 Include:
 - All
","Domains:
 Include:
 - All",ALL,,ALL,"all:
# The original author used datepart. not sure why. while date variables sometimes have times, this operator has been used successfully in other rules. The condition for the rule is that --STDTC and DM.RFSTDTC both contain complete values in their date portion. 
 - name: --STDTC
 operator: is_complete_date
 - name: RFSTDTC # DM is in match dataset below
 operator: is_complete_date
 - any:
 - all: 
# to determine the calculation, we have to determine if STDTC >= RFSTDTC
 - name: --","- Name: DM
 Keys:
 - USUBJID
","- name: --STDTC
 operator: dy # is dy adding +1 ???
 domain: All
 id: $val_stdy
#
#
# original coding, was not working and did not use dy operator...
# - all:
# - name: datepart(--STDTC)
# operator: greater_than_or_equal_to
# value: datepart(RFSTDTC)
# - name: --ENDY
# - name: --STDY
# operator: equal_to
# value: datepart(--STDTC)-datepart(RFSTDTC)+1
# - all:
# - name: datepart(--STDTC)
# operator: less_than
# value: datepart(RFSTDTC)
# - name: --ENDY
# operator: equal_to",,,3.4,Fully Executable,,,,,,Yes,,1.0
CG0232,CDISC.SDTMIG.CG0232,CG0232,1.0,CG0232,1.0,CDISC,SDTMIG,3.4,2.0,," If the reference time point corresponds to the date of collection or assessment: Start values: an observation can start BEFORE that time point, can start COINCIDENT with that time point, or it is unknown (U) when it started. End values: an observation can end BEFORE that time point, can end COINCIDENT with that time point, can be known that it didn't end but was ONGOING, or it is unknown (U) at all when it ended or if it was ongoing. AFTER is not a valid value in this case because it would represent an event after the date of collection.",IG v3.4,4.4.7,No Change,"- Cited Guidance:  If the reference time point corresponds to the date of collection or assessment: Start values: an observation can start BEFORE that time point, can start COINCIDENT with that time point, or it is unknown (U) when it started. End values: an observation can end BEFORE that time point, can end COINCIDENT with that time point, can be known that it didn  t end but was ONGOING, or it is unknown (U) at all when it ended or if it was ongoing. AFTER is not a valid value i",SDTM and SDTMIG Conformance Rules,Record,Warning,,success,invalid,"Trigger error when --STRTPT is not in ( BEFORE ,  COINCIDENT ,  AFTER ,  UNKNOWN )","--STRTPT is not in ( BEFORE ,  COINCIDENT ,  AFTER ,  UNKNOWN )",,Range & Limit,--STRTPT,--STTPT corresponds to the date of collection or assessment.,"--STRTPT in ('BEFORE', 'COINCIDENT', 'UNKNOWN')","
 Include:
 - All
","Domains:
 Include:
 - All",ALL,,ALL,"all:
 - name: --STTPT
 operator: non_empty
 - name: --STRTPT
 operator: is_contained_by
 value:
 - BEFORE
 - COINCIDENT
 - AFTER
 - UNKNOWN",,,,,3.4,Partially Executable,,,,,,Conditional,Dependent on additional appropriate metatdata,1.0
CG0201,CDISC.SDTMIG.CG0201,,,CG0201,1.0,CDISC,SDTMIG,3.4,2.0,,,,,,"- Cited Guidance: This example shows how to use the RELREC dataset to represent related information that is submitted as two datasets that have a one-to-many relationship. in the example below all the records in one domain are being related to all of the records in the other, so both USUBJID and IDVARVAL are null.... Since IDVAR identifies the keys that can be used to merge/join records between the datasets, --SEQ cannot be used because --SEQ only has meaning within a subject withi",SDTM and SDTMIG Conformance Rules,Record,Error,,success,invalid,Raise an error when IDVARVAL and USUBJID are empty and IDVAR = Sequence Number.,"IDVARVAL and USUBJID are not completed, but IDVAR equals Sequence Number.",,Range & Limit,,,,"
 Include:
 - Relationship
","Domains:
 Include:
 - RELREC",,,,"all:
 - name: IDVARVAL
 operator: empty
 - name: USUBJID
 operator: empty
 - name: IDVAR
 operator: ends_with
 value: SEQ",,,- RDOMAIN - IDVAR - IDVARVAL - RELID,,,,,,,,,,,1.0
CG0185,CDISC.SDTMIG.CG0185,CG0185,1.0,CG0185,1.0,CDISC,SDTMIG,3.4,2.0,Specification,"If value is from a numeric scale, represent only the number (e.g., ""2"" and not ""Grade 2"").",IG v3.4,6.3.5.6,Section change in SDTMIG v3.4,"- Cited Guidance:   If value is from a numeric scale, represent only the number (e.g.,  2  and not  Grade 2 ).   Document: IG v3.4 Section: 6.3.5.6 Item: Specification",SDTM and SDTMIG Conformance Rules,Record,Warning,,success,invalid,Raise a warning when LBTOXGR is not numeric,Verify that LBTOXGR value is not from a numeric scale,,Range & Limit,LBTOXGR,Numeric scale used,LBTOXGR is a numeric value,"
 Include:
 - Findings
","Domains:
 Include:
 - LB",FND,,LB,"all:
 - name: LBTOXGR
 operator: matches_regex
 value:  .*[a-zA-Z].*  # identifiers string contains characters
 - name:  LBTOXGR 
 operator: matches_regex
 value:  .*[0-9].*  #identifies that string also contains a number",,,-  LBTOXGR  -  LBTOX,,3.4,Partially Executable,,,,,,Yes,,1.0
CG0179,CDISC.SDTMIG.CG0179,CG0179,1.0,CG0179,1.0,CDISC,SDTMIG,3.4,2.0,Assumption 1,"The complete list of Inclusion/Exclusion criteria can be found in the Trial Inclusion/Exclusion Criteria (TI) dataset described in Section 7.4.1, Trial Inclusion/Exclusion Criteria.",IG v3.4,6.3.4,Cited guidance updated; will be no change if 3.3 is updated as per Jira ticket,"- Cited Guidance:  The complete list of Inclusion/Exclusion criteria can be found in the Trial Inclusion/Exclusion Criteria (TI) dataset described in Section 7.4.1, Trial Inclusion/Exclusion Criteria.  Document: IG v3.4 Item: Specification Section: 6.3.4",SDTM and SDTMIG Conformance Rules,Record,Error,,success,invalid,Check if IETESTCD is present in TI.IETESTCD,IETESTCD from IE domain does not exist in IETESTCD of TI domain.,,Range & Limit,IETESTCD,,IETESTCD in TI.IETESTCD,"
 Include:
 - Findings
","Domains:
 Include:
 - IE",FND,,IE,"all:
 - name: IETESTCD
 operator: is_not_contained_by
 value: $ti_ietestcd",,"- operator: distinct
 domain: TI
 name: IETESTCD
 id: $ti_ietestcd",- IETESTCD,,3.4,Fully Executable,,,,,,Yes,,1.0
CG0177,CDISC.SDTMIG.CG0177,CG0177,1.0,CG0177,1.0,CDISC,SDTMIG,3.4,2.0,Specification,Response to Inclusion/Exclusion criterion result in standard format.,IG v3.4,6.3.4,No Change,- Cited Guidance: Response to Inclusion/Exclusion criterion result in standard format Document: SDTMIG v3.4 Item:    Section: 6.3.4,SDTM and SDTMIG Conformance Rules,Record,Error,,success,invalid,IESTRESC is not equal to IEORRES,IESTRESC is not equal to IEORRES,,Range & Limit,IESTRESC,,IESTRESC = IEORRES,"
 Include:
 - Findings
","Domains:
 Include:
 - IE",FND,,IE,"all:
 - name: IESTRESC
 operator: not_equal_to
 value: IEORRES",,,- IEORRES - IESTRESC,,3.4,Fully Executable,,,,,,Yes,,1.0
CG0176,CDISC.SDTMIG.CG0176,CG0176,1.0,CG0176,1.0,CDISC,SDTMIG,3.4,2.0,Assumption 1,"The intent of the domain model is to collect responses to only those criteria that the subject did not meet, and not the responses to all criteria. ",IG v3.4,6.3.4,No Change,"- Cited Guidance: The intent of the domain model is to collect responses to only those criteria that the subject did not meet, and not the responses to all criteria. Document: SDTM v3.4 Section: 6.3.4",SDTM and SDTMIG Conformance Rules,Record,Warning,,success,invalid,Raise an error when IECAT= INCLUSION  and IEORRES^= N .,IECAT equals  INCLUSION  and IEORRES is not equal to  N .,,Range & Limit,IEORRES,IECAT = 'INCLUSION',IEORRES = 'N',"
 Include:
 - Findings
","Domains:
 Include:
 - IE",FND,,IE,"all:
 - name: IECAT
 operator: equal_to
 value: INCLUSION
 - name: IEORRES
 operator: not_equal_to
 value:  N",,,,,3.4,Fully Executable,,,,,,Yes,,1.0
CG0234,CDISC.SDTMIG.CG0234,CG0234,1.0,CG0234,1.0,CDISC,SDTMIG,3.4,2.0,," If the reference time point corresponds to the date of collection or assessment: Start values: an observation can start BEFORE that time point, can start COINCIDENT with that time point, or it is unknown (U) when it started. End values: an observation can end BEFORE that time point, can end COINCIDENT with that time point, can be known that it didn't end but was ONGOING, or it is unknown (U) at all when it ended or if it was ongoing. AFTER is not a valid value in this case because it would represent an event after the date of collection.",IG v3.4,4.4.7,No Change,"- Cited Guidance:  If the reference time point corresponds to the date of collection or assessment: Start values: an observation can start BEFORE that time point, can start COINCIDENT with that time point, or it is unknown (U) when it started. End values: an observation can end BEFORE that time point, can end COINCIDENT with that time point, can be known that it didn  t end but was ONGOING, or it is unknown (U) at all when it ended or if it was ongoing. AFTER is not a valid value i",SDTM and SDTMIG Conformance Rules,Record,Warning,,success,invalid,"Trigger error when --ENRTPT is not in ( BEFORE ,  COINCIDENT ,  ONGOING ,  AFTER ,  UNKNOWN )","--ENRTPT is not in ( BEFORE ,  COINCIDENT ,  ONGOING ,  AFTER ,  UNKNOWN )",,Range & Limit,--ENRTPT,--ENTPT corresponds to the date of collection or assessment.,"--ENRTPT in ('BEFORE', 'COINCIDENT', 'ONGOING', 'UNKNOWN')","
 Include:
 - All
","Domains:
 Include:
 - All",ALL,,ALL,"all:
 - name: --ENTPT
 operator: non_empty
 - name: --ENRTPT
 operator: is_contained_by
 value:
 - BEFORE
 - COINCIDENT
 - ONGOING
 - AFTER
 - UNKNOWN",,,- --ENTPT - --ENRTPT,,3.4,Partially Executable,,,,,,Conditional,Dependent on additional appropriate metatdata,1.0
CG0294,CDISC.SDTMIG.CG0294,CG0294,1.0,CG0294,1.0,CDISC,SDTMIG,3.4,2.0,Specification,"1. Name given to an Arm or Treatment Group. 2. If the timing of Visits for a trial does not depend on which Arm a subject is in, then Arm should be left blank.",IG v3.4,7.3.1,No Change,"- Cited Guidance: 1. Name given to an Arm or Treatment Group. 2. If the timing of visits for a trial does not depend on which Arm a subject is in, then Arm should be left blank. Document: IG v3.4 Item: Specification Section: 7.3.1",SDTM and SDTMIG Conformance Rules,Record,Warning,,success,invalid,Trigger error when ARM is populated and ARM is not in TA.ARM,ARM is not in TA.ARM,,Range & Limit,ARM,ARM ^= null,ARM in TA.ARM,"
 Include:
 - Trial Design
","Domains:
 Include:
 - TV",TDM,,TV,"all:
 - name: ARM
 operator: non_empty
 - name: ARM
 operator: is_not_contained_by
 value: $ta_arm",,"- operator: distinct
 domain: TA
 name: ARM
 id: $ta_arm
",,,3.4,Fully Executable,,,,,,Yes,,1.0
CG0293,CDISC.SDTMIG.CG0293,CG0293,1.0,CG0293,1.0,CDISC,SDTMIG,3.4,2.0,Specification,"2. If the timing of Visits for a trial does not depend on which ARM a subject is in, then ARMCD should be null.",IG v3.4,7.3.1,No Change,"- Cited Guidance: 2. If the timing of Visits for a trial does not depend on which ARM a subject is in, then ARMCD should be null. Document: IG v3.4 Item: Specification Section: 7.3.1",SDTM and SDTMIG Conformance Rules,Record,Warning,,success,invalid,Trigger error when ARMCD is populated and ARMCD is not in TA.ARMCD,ARMCD is not in TA.ARMCD,,Range & Limit,ARMCD,ARMCD ^= null,ARMCD in TA.ARMCD,"
 Include:
 - Trial Design
","Domains:
 Include:
 - TV",TDM,,TV,"all:
 - name: ARMCD
 operator: non_empty
 - name: ARMCD
 operator: is_not_contained_by
 value: $ta_armcd",,"- operator: distinct
 domain: TA
 name: ARMCD
 id: $ta_armcd",- ARMCD,,3.4,Fully Executable,,,,,,Yes,,1.0
CG0289,CDISC.SDTMIG.CG0289,CG0289,1.0,CG0289,1.0,CDISC,SDTMIG,3.4,2.0,,"The version number of the Reference Terminology, if applicable.",IG v3.4,7.4.2,No Change,"- Cited Guidance: The version number of the Reference Terminology, if applicable. Document: IG v3.4 Section: 7.4.2",SDTM and SDTMIG Conformance Rules,Record,Warning,,success,invalid,Trigger error when TSVCDREF =  CDISC  and TSVCDVER is not a valid published version (date),TSVCDVER is not a valid published version (date),,Range & Limit,TSVCDVER,TSVCDREF = 'CDISC',TSVCDVER = valid published version (date),"
 Include:
 - Trial Design
","Domains:
 Include:
 - TS",TDM,,TS,"all:
 - name: TSVCDREF
 operator: equal_to
 value: CDISC
 - name: TSVCDVER
 operator: is_contained_by
 value: null
",,,,,3.4,Fully Executable,,,,,,Yes,,1.0
CG0068,CDISC.SDTMIG.CG0068,CG0068,1.0,CG0068,1.0,CDISC,SDTMIG,3.4,2.0,Specification RFICDTC,"Date/time of informed consent in ISO 8601 character format. This will be the same as the date of informed consent in the Disposition domain, if that protocol milestone is documented.",IG v3.4,5.2,"Retired as of 3.4.  From version 4.0 onward, the DC domain must be taken into account.","- Cited Guidance: Date/time of informed consent in ISO 8601 character format. This will be the same as the date of informed consent in the Disposition domain, if that protocol milestone is documented. Document: IG v3.4 Item: Specification Section:  5.2",SDTM and SDTMIG Conformance Rules,Record,Warning,,success,invalid,"When there are multiple informed consents obtained and DSDECOD =  INFORMED CONSENT OBTAINED , the earliest DSSTDTC for each subject should be equal to DM.RFICDTC.",The earliest disposition date for  INFORMED CONSENT OBTAINED  is not equal to DM.RFICDTC,,Range & Limit,DSSTDTC,Multiple informed consents obtained and DSDECOD = 'INFORMED CONSENT OBTAINED',"For each subject, earliest DSSTDTC = DM.RFICDTC","
 Include:
 - Events
","Domains:
 Include:
 - DS",EVT,,DS,"all:
 - operator:  present_on_multiple_rows_within 
 target:  DSDECOD 
 comparator:  INFORMED CONSENT OBTAINED 
 within:  USUBJID 
 - name: DSDECOD
 operator: equal_to
 value:  INFORMED CONSENT OBTAINED 
 - name: $min_ds_dsstdtc
 operator: equal_to
 value: $dm_rficdtc",,"- domain: DM
 id: $dm_rficdtc
 name: USUBJID
 operator: distinct
 - domain: DS
 id:  $min_ds_dsstdtc 
 name:  DSSTDTC 
 operator:  min_date 
 group: 
 - USUBJID",,,3.4,Fully Executable,,,,,,Yes,,1.0
CG0069,CDISC.SDTMIG.CG0069,CG0069,1.0,CG0069,1.0,CDISC,SDTMIG,3.4,2.0,Specification,"Date/time of death for any subject who died, in ISO 8601 format. Should represent the date/time that is captured in the clinical-trial database.",IG v3.4,5.2,No Change,"- Cited Guidance:  Date/time of death for any subject who died, in ISO 8601 format.\ \ Should represent the date/time that is captured in the clinical-trial database.\_  Document: IG v3.4 Item: Specification Section:  5.2",SDTM and SDTMIG Conformance Rules,Record,Error,,success,invalid,Raise an error when DSSTDTC is not equal to DM.DTHDTC and DSDECOD is equal to  DEATH,"DSSTDTC does not equal DM.DTHDTC, when DSDECOD equals  DEATH .",,Range & Limit,DSSTDTC,DSDECOD = 'DEATH',DSSTDTC = DM.DTHDTC,"
 Include:
 - Events
","Domains:
 Include:
 - DS",EVT,,DS,"all:
 - name: DSDECOD
 operator: equal_to
 value:  DEATH 
 - name: DSSTDTC
 operator: not_equal_to
 value: DTHDTC
","- Name: DM
 Keys:
 - USUBJID
",,- DSDECOD - DSSTDTC - DTHDTC,,3.4,Fully Executable,,,,,,Yes,,1.0
CG0032,CDISC.SDTMIG.CG0032,CG0032,2.0,CG0032,2.0,CDISC,SDTMIG,3.4,2.0,,"For planned visits, values of VISIT, VISITNUM, and VISITDY must be those defined in the Trial Visits (TV) dataset (Section 7.3.1, Trial Visits).",IG v3.4,4.4.5,Changed variable column from VISIT to VISITDY since the rule is about VISITDY. Up versioned rule. Text for cited guidance was slightly modified in SDTMIG v3.4,"- Cited Guidance: For planned visits, values of VISIT, VISITNUM, and VISITDY must be those defined in the Trial Visits (TV) dataset (Section 7.3.1, Trial Visits). Document: IG v3.4 Item:    Section: 4.4.5",SDTM and SDTMIG Conformance Rules,Value,Error,,success,invalid,Verify that visitdy is planned and exists in TV,Visit Day cannot be found in Trial Visit (TV) domain,,Range & Limit,VISITDY,VISITNUM is in TV.VISITNUM,VISITDY = TV.VISITDY,"
 Include:
 - All
","Domains:
 Exclude:
 - TV",ALL,,ALL,"all:
 - name: VISITDY
 operator: exists
 - name: VISITNUM
 operator: is_contained_by
 value: $tv_visitnum
 - name: VISITDY
 operator: not_equal_to 
 value: TV.VISITDY","- Name: TV
 Keys: 
 - VISITNUM 
","- domain: TV
 id: $tv_visitnum
 name: VISITNUM
 operator: distinct",-  VISITDY  -  VISITNUM,,3.4,Fully Executable,,,,,,Yes,,1.0
CG0031,CDISC.SDTMIG.CG0031,CG0031,1.0,CG0031,1.0,CDISC,SDTMIG,3.4,2.0,,"For planned visits, values of VISIT, VISITNUM, and VISITDY must be those defined in the Trial Visits (TV) dataset (Section 7.3.1, Trial Visits).",IG v3.4,4.4.5,Text for cited guidance was slightly modified in SDTMIG v3.4,"- Cited Guidance:  For planned visits, values of VISIT, VISITNUM, and VISITDY must be those defined in the Trial Visits (TV) dataset (Section 7.3.1, Trial Visits).  Document: IG v3.4 Item:    Section: 4.4.5",SDTM and SDTMIG Conformance Rules,Value,Error,,success,invalid,"Verify when VISIT is not null in any given domain and VISIT is planned (SVPRESP =  Y ), then VISIT should be among TV.VISIT.","For a planned visit (SVPRESP =  Y ), non-missing VISIT value must be among those present in TV.VISIT.",,Range & Limit,VISIT ,VISIT ^= null and is planned,VISIT in TV.VISIT,"
 Include:
 - All
","Domains:
 Exclude:
 - TV",ALL,,ALL,"all:
 - name: VISIT
 operator: non_empty
 - name: SVPRESP
 operator: equal_to
 value:  Y 
 - name: VISIT
 operator: is_not_contained_by
 value: $tv_visit","- Name: SV
 Keys:
 - USUBJID
 - VISIT
","- domain: TV
 id: $tv_visit
 name: VISIT
 operator: distinct
",- VISIT - VISITNUM,,3.4,Fully Executable,,,,,,Conditional,Dependent on additional protocol metadata,1.0
CG0029,CDISC.SDTMIG.CG0029,CG0029,1.0,CG0029,1.0,CDISC,SDTMIG,3.4,2.0,,The unique subject identifier (USUBJID) is required in all datasets containing subject-level data. USUBJID values must be unique for each trial participant (subject) across all trials in the submission.,IG v3.4,4.2.3,No Change,- Cited Guidance: The unique subject identifier (USUBJID) is required in all datasets containing subject-level data. USUBJID values must be unique for each trial participant (subject) across all trials in the submission. Document: IG v3.4 Section: 4.2.3,SDTM and SDTMIG Conformance Rules,Record,Error,,success,invalid,Trigger error when domain is not an AP-- domain and USUBJID is not present in DM.USUBJID,USUBJID is not found in DM.USUBJID,,Range & Limit,USUBJID,Domain Not in ('AP--'),USUBJID in DM.USUBJID,"
 Include:
 - All
","Domains:
 Exclude:
 - AP",ALL,,ALL,"all:
 - name:  USUBJID 
 operator: non_empty
 - name:  USUBJID 
 operator:  is_not_contained_by 
 value:  $dm_usubjid 
",,"- domain:  DM 
 id:  $dm_usubjid 
 name:  USUBJID 
 operator: distinct",,,3.4,Fully Executable,,,,,,Yes,,1.0
CG0027,CDISC.SDTMIG.CG0027,CG0027,1.0,CG0027,1.0,CDISC,SDTMIG,3.4,2.0,--SCAT,"A further grouping or classification of the category for the topic of the finding, event, or intervention. The category is in --CAT.",Model v2.0,Interventions,Cited guidance updated. Reference to model section and item updated per new style.,"- Cited Guidance: A further grouping or classification of the category for the topic of the finding, event, or intervention. The category is in --CAT. Document: Model v2.0 Item: --SCAT Section: Interventions",SDTM and SDTMIG Conformance Rules,Record,Warning,,success,invalid,Trigger error when --SCAT is not null and --SCAT is equal to --CAT,--SCAT is equal to --CAT,,Range & Limit,--SCAT,--SCAT ^= null,--SCAT ^= --CAT,"
 Include:
 - All
","Domains:
 Include:
 - All",ALL,,ALL,"all:
 - name: --SCAT
 operator: non_empty
 - name: --SCAT
 operator: equal_to
 value: --CAT",,,- --CAT - --SCAT,,3.4,Fully Executable,,,,,,Yes,,1.0
CG0009,CDISC.SDTMIG.CG0009,CG0009,1.0,CG0009,1.0,CDISC,SDTMIG,3.4,2.0,"DS, Assumption 4.c","EPOCH may be included as a timing variable as in other general-observation-class domains. In DS, EPOCH is based on DSSTDTC. The values of EPOCH are drawn from the Trial Arms(TA) dataset (Section 7.2.1, Trial Arms).",IG v3.4,6.2.3,No Change,"- Cited Guidance:  EPOCH may be included as a timing variable as in other general-observation-class domains. In DS, EPOCH is based on DSSTDTC. The values of EPOCH are drawn from the Trial Arms(TA) dataset (Section 7.2.1, Trial Arms).  Document: SDTMIG v3.4 Item: DS, Assumption 4.c Section: 6.2.3",SDTM and SDTMIG Conformance Rules,Record,Error,,success,invalid,Raise an error when EPOCH is not in TA.EPOCH,EPOCH is not in TA.EPOCH,,Range & Limit,EPOCH,,EPOCH in TA.EPOCH,"
 Include:
 - All
","Domains:
 Include:
 - All",ALL,,ALL,"all:
 - name: EPOCH
 operator: is_not_contained_by
 value: $ta_epoch
 - name: EPOCH
 operator: non_empty",,"- domain: TA
 id: $ta_epoch
 name: EPOCH
 operator: distinct
",- EPOCH,,3.4,Fully Executable,,,,,,Yes,,1.0
CG0077,CDISC.SDTMIG.CG0077,CG0077,1.0,CG0077,1.0,CDISC,SDTMIG,3.4,2.0,Assumptions 3.a.1,"This categorization should not group all records (within the MH Domain) into one generic group such as ""Medical History"" or ""General Medical History"" because this is redundant information with the domain code. If no smaller categorization can be applied, then it is not necessary to include or populate this variable.",IG v3.4,6.2.6,No change,"- Cited Guidance: This categorization should not group all records (within the MH Domain) into one generic group such as  Medical History  or  General Medical History  because this is redundant information with the domain code. If no smaller categorization can be applied, then it is not necessary to include or populate this variable. Document: IG v3.4 Item: Assumptions 3.a.1 Section: 6.2.6",SDTM and SDTMIG Conformance Rules,Domain,Warning,,success,invalid,"MHCAT should not group all records. If no smaller categorization can be applied, then it is not necessary to include or populate this variable.","MHCAT is grouping all records into one generic group. If no smaller categorization can be applied, then it is not necessary to include or populate this variable.",,Range & Limit,MHCAT,MHCAT ^= null,MHCAT ^= the same value for all records,"
 Include:
 - Events
","Domains:
 include_split_datasets: True
 Include:
 - MH",EVT,,MH,"all:
 - name: MHCAT
 operator: has_same_values",,,- MHCAT,,3.4,Fully Executable,,,,,,Yes,,1.0
CG0153,CDISC.SDTMIG.CG0153,CG0153,1.0,CG0153,1.0,CDISC,SDTMIG,3.4,2.0,,ARMCD is limited to 20 characters and does not have the character restrictions that apply to --TESTCD,IG v3.4,4.2.1,Updated cited guidance to match full sentence from IG,- Cited Guidance: ARMCD is limited to 20 characters and does not have the character restrictions that apply to --TESTCD Document: SDTMIG v3.4 Section: 4.2.1,SDTM and SDTMIG Conformance Rules,Record,Error,,success,invalid,Verify ARMCD value length is <= 20,ARMCD value length is greater than 20,retire for IGs after v3.4; new rule with DC added; update guidance location/text for 4.0,Range & Limit,ARMCD,,ARMCD value length <= 20,"
 Include:
 - Special-Purpose
 - Trial Design
","Domains:
 Include:
 - DM
 - TA","SPC, TDM",,"DM, TA","all:
 - name: ARMCD
 operator: matches_regex
 value: ^(.){21,}$",,,- ARMCD,,3.4,Fully Executable,Final Review,Carlo,Final,,,Yes,,1.0
CG0143,CDISC.SDTMIG.CG0143,CG0143,2.0,CG0143,1.0,CDISC,SDTMIG,3.4,2.0,Specification|Assumption 10c,"Specification [This will be the same as the date of informed consent in the Disposition domain, if that protocol milestone is documented. Would be null only in studies not collecting the date of informed consent.]|Assumption 10c[RFICDTC should correspond to the date of the informed consent protocol milestone in DS, if that protocol milestone is documented in DS. In the event that there are multiple informed consents, this will be the date of the first one.]",IG v3.4,5.2,Retired as of IG v4.0.,"- Cited Guidance:  This will be the same as the date of informed\ \ consent in the Disposition domain, if that protocol milestone is documented.\ \ Would be null only in studies not collecting the date of informed consent.  Document: SDTMIG v3.4 Item: Specification Section:  5.2  - Cited Guidance:  RFICDTC should correspond to the date of the informed consent\ \ protocol milestone in DS, if that protocol milestone is documented in DS.\n\ \ In the event that there are multiple i",SDTM and SDTMIG Conformance Rules,Record,Error,,success,invalid,DM.RFICDTC must equal the earliest DS.DSSTDTC when DSTERM =  INFORMED CONSENT OBTAINED .,"DM.RFICDTC is not equal to the earliest DSSTDTC, when DSTERM equals Informed consent obtained.","New version, referencing DSDECOD rather than DSTERM.

Retire rule for IGs after v3.4.",Range & Limit,RFICDTC,DS.DSDECOD indicates informed consent obtained,RFICDTC = earliest DS.DSSTDTC,"
 Include:
 - Events
","Domains:
 Include:
 - DS",SPC,,DM,"all:
 - name: DSTERM
 operator: contains
 value:  INFORMED CONSENT OBTAINED 
 - name: RFICDTC
 operator: not_equal_to
 value:  $min_ds_dsstdtc  
","- Name: DM
 Keys:
 - USUBJID
","- operator:  min_date 
 domain:  DS 
 name: DSSTDTC
 id:  $min_ds_dsstdtc 
 group:
 - USUBJID",- DSDECOD - RFICDTC - DSSTDTC,,3.4,Partially Executable,Final Review,Carlo,Final,,,Yes,,1.0
CG0102,CDISC.SDTMIG.CG0102,CG0102,1.0,CG0102,1.0,CDISC,SDTMIG,3.4,2.0,Assumption 2b,"Doses of placebo should be represented by EXTRT = ""PLACEBO"" and EXDOSE = ""0"" (indicating 0 mg of active ingredient was taken or administered).",IG v3.4,6.1.3.1,No Change,- Cited Guidance: Doses of placebo should be represented by EXTRT =  PLACEBO  and EXDOSE =  0  (indicating 0 mg of active ingredient was taken or administered). Document: SDTMIG v3.4 Item: Assumption 2b Section: 6.1.3.1,SDTM and SDTMIG Conformance Rules,Record,Error,,success,invalid,Verify the value for EXDOSE is 0 if EXTRT is PLACEBO.,"EXTRT is PLACEBO, but EXDOSE is not equal to 0.",,Range & Limit,EXDOSE,EXTRT = 'PLACEBO',EXDOSE = 0,"
 Include:
 - Interventions
","Domains:
 Include:
 - EX",INT,,EX,"all:
 - name: EXTRT
 operator: equal_to
 value: PLACEBO
 - name: EXDOSE
 operator: not_equal_to
 value: 0
",,,- EXTRT - EXDOSE,,3.4,Fully Executable,,,,,,Yes,,1.0
CG0101,CDISC.SDTMIG.CG0101,CG0101,2.0,CG0101,2.0,CDISC,SDTMIG,3.4,2.0,,"IG v3.4[6.1.3.2][Assumption 4a][For example, if 0 tablets are taken within a timeframe or 0 mL is  infused at a visit, then ECOCCUR = 'N' is the standard representation of the collected doses not taken, not given, or missed. Dose amount variables (e.g., ECDOSE, ECDOSTXT) must not be set to zero (0) as an alternative method for indicating doses not taken, not given, or missed.]|IG v3.4[6.1.3.2][Assumption 4b][Qualifiers that indicate dose amount (e.g., ECDOSE, ECDOSTXT) may be populated with positive (non-zero) values in cases where the sponsor feels it is necessary and/or appropriate to represent specific dose amounts not taken, not given, or missed.]",IG v3.4,6.1.3.2,"Cited guidance from 6.1.3.2 Assumption 4A updated slightly in SDTMIG v3.4

Rule to be retired for IGs after v3.4.","- Cited Guidance: For example, if 0 tablets are taken within a timeframe or 0 mL is infused at a visit, then ECOCCUR =  N  is the standard representation of the collected doses not taken, not given, or missed. Dose amount variables (e.g., ECDOSE, ECDOSTXT) must not be set to zero (0) as an alternative method for indicating doses not taken, not given, or missed. Document: IG v3.4 Item: Assumption 4a Section: 6.1.3.2 - Cited Guidance: Qualifiers that indicate dose amount (e.g., E",SDTM and SDTMIG Conformance Rules,Record,Error,,success,invalid,"When ECOCCUR indicates no dose, then ECDOSE needs to be null or > 0; it cannot be used to indicate a dose wasn t taken.","ECOCCUR indicates dose was not given, but ECDOSE is not blank or has a value less than or equal to 0",Rule retired for IGs after v3.4.  Handling of ECOCCUR has changed.,Range & Limit,ECDOSE,ECOCCUR = 'N',ECDOSE = null or > 0,"
 Include:
 - Interventions
","Domains:
 Include:
 - EC",INT,,EC,"all:
 - name: ECOCCUR # The condition is ECOCCUR =  N 
 operator: equal_to
 value:  N 
 - name: ECDOSE # The rule is ECDOSE is null or > 0
 # so the failure criteria is not empty and LE 0
 # which is the same as just LE 0
 operator: less_than_or_equal_to
 value: 0",,,- ECDOSE - ECOCCUR,,3.4,Fully Executable,Final Review,Carlo,Final,,,Yes,,1.0
CG0100,CDISC.SDTMIG.CG0100,CG0100,2.0,CG0100,2.0,CDISC,SDTMIG,3.4,2.0,Assumption 4a|Assumption 4b,"Assumption 4a[For example, if 0 tablets are taken within a timeframe or 0 mL infused at a visit, then ECOCCUR = 'N' is the standard representation of the collected doses not taken, not given, or missed. Dose amount variables (e.g., ECDOSE, ECDOSTXT) must not be set to zero (0) as an alternative method for indicating doses not taken, not given, or missed.]|Assumption 4b[Qualifiers that indicate dose amount (e.g., ECDOSE, ECDOSTXT) may be populated with positive (non-zero) values in cases where the sponsor feels it is necessary and/or appropriate to represent specific dose amounts not taken, not given, or missed.]",IG v3.4,6.1.3.2,No Change,"- Cited Guidance: For example, if 0 tablets are taken within a timeframe or 0 mL infused at a visit, then ECOCCUR =  N  is the standard representation of the collected doses not taken, not given, or missed. Dose amount variables (e.g., ECDOSE, ECDOSTXT) must not be set to zero (0) as an alternative method for indicating doses not taken, not given, or missed. Document: IG v3.4 Item: Assumption 4a Section: 6.1.3.2 - Cited Guidance: Qualifiers that indicate dose amount (e.g., ECDO",SDTM and SDTMIG Conformance Rules,Record,Error,,success,invalid,"Raise an error when ECOCCUR is not equal to  N , ECSTAT and ECDOSTXT are both empty but ECDOSE less than or equal to 0.","ECOCCUR is not  N , ECSTAT and ECDOSTXT are both empty but ECDOSE is less than or equal to 0.",,Range & Limit,ECDOSE,ECOCCUR ^= 'N' and ECSTAT = null and ECDOSTXT = null,ECDOSE > 0,"
 Include:
 - Interventions
","Domains:
 Include:
 - EC",INT,,EC,"all:
 - name: ECOCCUR
 operator: not_equal_to
 value:  N 
 - name: ECSTAT
 operator: empty
 - name: ECDOSTXT
 operator: empty
 - name: ECDOSE
 operator: less_than_or_equal_to
 value: 0",,,- ECOCCUR - ECSTAT - ECDOSTXT - ECDOSE - ECSTDTC,,3.4,Fully Executable,,,,,,Yes,,1.0
CG0085,CDISC.SDTMIG.CG0085,CG0085,1.0,CG0085,1.0,CDISC,SDTMIG,3.4,2.0,--PRESP,"Events[--PRESP][Value is ""Y"" for prespecified events, null for spontaneously reported events.]|Interventions[--PRESP][Values should be ""Y"" or null.]",Model v2.0,Events|Interventions,Cited guidance updated. Reference to model section and item updated per new style.,"- Cited Guidance: Events[--PRESP][Value is  Y  for prespecified events, null for spontaneously reported events.] Interventions[--PRESP][Values should be  Y  or null.] Document: Model v2.0 Item: --PRESP Section: Events|Interventions",SDTM and SDTMIG Conformance Rules,Record,Error,,success,invalid,Raise an error when --PRESP does not equal  Y  or is not empty.,--PRESP does not equal  Y  or is not empty.,,Range & Limit,--PRESP,,"--PRESP in ('Y', null)","
 Include:
 - Events
 - Interventions
","Domains:
 Exclude:
 - DS
 - DV
 - EX","EVT, INT",,"NOT(DS, DV, EX)","all:
 - name: --PRESP
 operator: non_empty
 - name: --PRESP
 operator: not_equal_to
 value:  Y",,,- --PRESP,,3.4,Fully Executable,,,,,,Yes,,1.0
CG0570,CDISC.SDTMIG.CG0570,CG0570,1.0,CG0570,1.0,CDISC,SDTMIG,3.4,2.0,Specification,The trial arms table describes each planned arm in the trial.,IG v3.4,7.2.1|7.3.1|5.2,Section change in SDTMIG v3.4,- Cited Guidance: The trial arms table describes each planned arm in the trial. Document: SDTMIG v3.4 Section:  7.2  - Cited Guidance: The trial arms table describes each planned arm in the trial. Document: SDTMIG v3.4 Section: 7.3.1 - Cited Guidance: The trial arms table describes each planned arm in the trial. Document: SDTMIG v3.4 Section:  5.2,SDTM and SDTMIG Conformance Rules,Record,Warning,,success,invalid,"Raise an error when ARM is  Screen Failure ,  Not Assigned ,  Unplanned Treatment ,  Not Treated","ARM cannot be equal to  Screen Failure ,  Not Assigned ,  Unplanned Treatment  or  Not Treated .",,Range & Limit,ARM,,"ARM not in ('Screen Failure', 'Not Assigned', 'Unplanned Treatment', 'Not Treated')","
 Include:
 - Trial Design
 - Special-Purpose
","Domains:
 Include:
 - DM
 - TA
 - TV","TDM, SPC",,"DM, TA, TV","all:
 - name: ARM
 operator: is_contained_by_case_insensitive
 value:
 - Screen Failure
 - Not Assigned
 - Not Treated
 - Unplanned Treatment",,,,,3.4,Fully Executable,,,,,,,,1.0
CG0603,CDISC.SDTMIG.CG0603,,,CG0603,1.0,CDISC,SDTMIG,3.4,2.0,,,,,,"- Cited Guidance: When findings are collected about an event or intervention, and the name of the event or intervention is collected in an Other, specify  CRF field, the value in --OBJ variable depends on whether the FA record has a parentrecord and whether the  Other, specify  value was coded. Document: SDTMIG v3.4 Section: 4.2.7.4",SDTM and SDTMIG Conformance Rules,Record,Error,,success,invalid,"Raise an error when parent record exists and DECOD ^= null, and --OBJ does not equal --DECOD",-OBJ does not equal --DECOD of the parent record,,Range & Limit,,,,"
 Include:
 - Findings
","Domains:
 Include:
 - FA",,,,"all:
 - name: 
 operator:   
",,,,,,,,,,,,,,1.0
CG0528,CDISC.SDTMIG.CG0528,CG0528,1.0,CG0528,1.0,CDISC,SDTMIG,3.4,2.0,Assumption 5,"The standard Supplemental Qualifiers included in previous versions of the SDTMIG (COMPLT, FULLSET, ITT, PPROT, and SAFETY) should not be used. Note that the ADaM subject-level analysis dataset (ADSL) specifies standard variable names for the most common populations and requires the inclusion of these flags when necessary for analysis; consult the ADaM Implementation Guide for more information about these variables.",IG v3.4,5.2,Retired for IGs after v3.4,"- Cited Guidance: The standard Supplemental Qualifiers included in previous versions of the SDTMIG (COMPLT, FULLSET, ITT, PPROT, and SAFETY) should not be used. Note that the ADaM subject-level analysis dataset (ADSL) specifies standard variable names for the most common populations and requires the inclusion of these flags when necessary for analysis; consult the ADaM Implementation Guide for more information about these variables. Document: IG v3.4 Item: Assumption 5 Section:",SDTM and SDTMIG Conformance Rules,Record,Warning,,success,invalid,SUPPDM must not include population flags.,Population flag is present in SUPPDM,retire; suppdm now nsdm; no qnam.  Still want a rule that you can't create adam population flags in nsdm,Range & Limit,QNAM,,ADSL Population flags not in SUPPDM,"
 Include:
 - Special-Purpose
","Domains:
 Include:
 - SUPP--",SPC,,DM,"all:
 - name: RDOMAIN
 operator: equal_to_case_insensitive
 value: DM
 - name: QNAM
 operator: matches_regex
 value: (ENRFL|SAFFL|EFFFL|ITTFL|PPROTFL|COMPLFL|COMPLT|FULLSET|ITT|PPROT|SAFETY)",,,- QNAM,,3.4,Fully Executable,NSV / MSI,MSI: Carlo,Final,,,,,1.0
CG0512,CDISC.SDTMIG.CG0512,CG0512,1.0,CG0512,1.0,CDISC,SDTMIG,3.4,2.0,Specification,"With the exception of studies which use multi-stage Arm assignments, must be a value of ARMCD in the Trial Arms Dataset.
If the subject was not assigned to an Arm or followed a course not described by any planned Arm, ACTARMCD is null and ARMNRS is populated.",IG v3.4,5.2,"Rule retired for IGs after 3.4, replaced by a rule that addresses both DM and DC.","- Cited Guidance: With the exception of studies which use multi-stage Arm assignments, must be a value of ARMCD in the Trial Arms Dataset. If the subject was not assigned to an Arm or followed a course not described by any planned Arm, ACTARMCD is null and ARMNRS is populated. Document: IG v3.4 Item: Specification Section:  5.2",SDTM and SDTMIG Conformance Rules,Record,Warning,,success,invalid,"Trigger error when study does not use multi-stage arm assignments and ACTARMCD ^= null, and ACTARMCD is not in TA.ARMCD",ACTARMCD is not in in TA.ARMCD,"Rule retired for IGs after 3.4, replaced by a rule that addresses both DM and DC.",Range & Limit,ACTARMCD,Study does not use multi-stage arm assignments and ACTARMCD ^= null,ACTARMCD in TA.ARMCD,"
 Include:
 - Special-Purpose
","Domains:
 Include:
 - DM",SPC,,DM,"all:
 - name: ACTARMCD
 operator: non_empty
 - name: ACTARMCD
 operator: is_not_contained_by
 value: $ta_armcd",,"- domain: TA
 id: $ta_armcd
 name: ARMCD
 operator: distinct
",- ACTARMCD,,3.4,Fully Executable,Final Review,Carlo,Final,,,,,1.0
CG0619,CDISC.SDTMIG.CG0619,CG0619,1.0,CG0619,1.0,CDISC,SDTMIG,3.4,2.0,Specification,"The value will be ""N"" if the specimen is not usable, and null if the specimen is usable.",Model v2.0,Findings,New Rule,"- Cited Guidance: The value will be  N  if the specimen is not usable, and null if the specimen is usable. Document: SDTM v2.0 Section: Findings",SDTM and SDTMIG Conformance Rules,Record,Error,,success,invalid,Raise an error when --SPCUFL is not null or equal to  N,--SPCUFL is not null or equal to  N,,Range & Limit,--SPCUFL,,--SPCUFL = 'N' or null,"
 Include:
 - Findings
","Domains:
 Include:
 - All",FND,,ALL,"all:
 - name: --SPCUFL
 operator:  exists 
 - name: --SPCUFL
 operator:  not_equal_to 
 value:  N 
 - name: --SPCUFL
 operator:  non_empty",,,,,3.4,Fully Executable,,,,,,,,1.0
CG0658,CDISC.SDTMIG.CG0658,CG0658,1.0,CG0658,1.0,CDISC,SDTMIG,3.4,2.0,Assumption 7,VISITDY is the Planned Study Day of a visit. It should not be populated for unplanned visits.,IG v3.4,5.5,New rule,- Cited Guidance: VISITDY is the Planned Study Day of a visit. It should not be populated for unplanned visits. Document: SDTMIG v3.4 Section:  5.5,SDTM and SDTMIG Conformance Rules,Record,Warning,,success,invalid,Raise an error when SVPRESP is null and VISITDY is not null.,VISITDY is populated when SVPRESP is null. VISITDY is the Planned Study Day of a visit. It should not be populated for unplanned visits.,,Range & Limit,VISITDY,SVPRESP = null,VISITDY = null,"
 Include:
 - Special-Purpose
","Domains:
 Include:
 - SV",SPC,,SV,"all:
 - name: SVPRESP
 operator: empty
 - name: VISITDY
 operator: non_empty",,,,,3.4,Fully Executable,,,,,,,,1.0
CG0657,CDISC.SDTMIG.CG0657,CG0657,1.0,CG0657,1.0,CDISC,SDTMIG,3.4,2.0,5.5[Specification][SVPRESP]|7.3.1[Assumption 6],"5.5[Specification][SVPRESP][Value is ""Y"" for planned visits, null for unplanned visits.]|7.3.1[Assumption 6] [The values of VISITNUM in the TV dataset are the valid values of VISITNUM for planned Visits. Any values of VISITNUM that appear in subject-level datasets that are not in the TV dataset are assumed to correspond to unplanned Visits....  If a subject-level dataset includes both VISITNUM and VISIT, then records that include values of VISITNUM that appear in the TV dataset should also include the corresponding values of VISIT from the TV dataset.]",IG v3.4,5.5|7.3.1,New rule,"- Cited Guidance: Value is  Y  for planned visits, null for unplanned visits. Document: SDTMIG v3.4 Item: SVPRESP Section:  5.5  - Cited Guidance: The values of VISITNUM in the TV dataset are the valid values of VISITNUM for planned Visits. Any values of VISITNUM that appear in subject-level datasets that are not in the TV dataset are assumed to correspond to unplanned Visits.... If a subject-level dataset includes both VISITNUM and VISIT, then records that include values of VI",SDTM and SDTMIG Conformance Rules,Record,Warning,,success,invalid,Raise an error when SVPRESP is  Y  and VISIT is not present in TV.VISIT.,Planned visit is not found in TV.,,Range & Limit,VISIT,SVPRESP = 'Y',VISIT in TV.VISIT,"
 Include:
 - Special-Purpose
","Domains:
 Include:
 - SV",SPC,,SV,"all:
 - name: SVPRESP
 operator: equal_to
 value:  Y 
 - name: VISIT
 operator:  is_not_contained_by 
 value: $tv_visit
",,"- domain: TV
 id: $tv_visit
 name: VISIT
 operator: distinct
",,,3.4,Fully Executable,,,,,,,,1.0
CG0656,CDISC.SDTMIG.CG0656,CG0656,1.0,CG0656,1.0,CDISC,SDTMIG,3.4,2.0,5.5[Specification][SVPRESP]|7.3.1[Assumption 6],"5.5[Specification][SVPRESP][Value is ""Y"" for planned visits, null for unplanned visits.]|7.3.1[Assumption 6] [The values of VISITNUM in the TV dataset are the valid values of VISITNUM for planned Visits. Any values of VISITNUM that appear in subject-level datasets that are not in the TV dataset are assumed to correspond to unplanned Visits. This applies, in particular, to the subject-level Subject Visits (SV) dataset; see SV under Section 5, Models for Special-Purpose Domains, for additional information about handling unplanned Visits.]",IG v3.4,5.5|7.3.1,New rule,"- Cited Guidance: Value is  Y  for planned visits, null for unplanned visits. Document: SDTMIG v3.4 Item: SVPRESP Section:  5.5  - Cited Guidance: The values of VISITNUM in the TV dataset are the valid values of VISITNUM for planned Visits. Any values of VISITNUM that appear in subject-level datasets that are not in the TV dataset are assumed to correspond to unplanned Visits. This applies, in particular, to the subject-level Subject Visits (SV) dataset; see SV under Section 5,",SDTM and SDTMIG Conformance Rules,Record,Warning,,success,invalid,Raise an error when SVPRESP is null and VISITNUM is present in TV.VISITNUM,VISITNUM for unplanned visit is present in TV.,,Range & Limit,VISITNUM,SVPRESP = null,VISITNUM not in TV.VISITNUM,"
 Include:
 - Special-Purpose
","Domains:
 Include:
 - SV",SPC,,SV,"all:
 - name: SVPRESP
 operator: empty
 - name: VISITNUM
 operator: is_contained_by
 value: $tv_visitnum",,"- domain: TV
 id: $tv_visitnum
 name: VISITNUM
 operator: distinct",,,3.4,Fully Executable,,,,,,,,1.0
CG0655,CDISC.SDTMIG.CG0655,CG0655,1.0,CG0655,1.0,CDISC,SDTMIG,3.4,2.0,5.5[Specification][SVPRESP]|7.3.1[Assumption 6],"5.5[Specification][SVPRESP][Value is ""Y"" for planned visits, null for unplanned visits.]|7.3.1[Assumption 6] [The values of VISITNUM in the TV dataset are the valid values of VISITNUM for planned Visits. Any values of VISITNUM that appear in subject-level datasets that are not in the TV dataset are assumed to correspond to unplanned Visits. This applies, in particular, to the subject-level Subject Visits (SV) dataset; see SV under Section 5, Models for Special-Purpose Domains, for additional information about handling unplanned Visits.]",IG v3.4,5.5|7.3.1,New rule,"- Cited Guidance: Value is  Y  for planned visits, null for unplanned visits. Document: SDTMIG v3.4 Item: SVPRESP Section:  5.5  - Cited Guidance: The values of VISITNUM in the TV dataset are the valid values of VISITNUM for planned Visits. Any values of VISITNUM that appear in subject-level datasets that are not in the TV dataset are assumed to correspond to unplanned Visits. This applies, in particular, to the subject-level Subject Visits (SV) dataset; see SV under Section 5,",SDTM and SDTMIG Conformance Rules,Record,Warning,,success,invalid,Raise an error when SVPRESP= Y  and VISITNUM is not in TV.VISITNUM,VISITNUM for planned visit is not in TV.,,Range & Limit,VISITNUM,SVPRESP = 'Y',VISITNUM in TV.VISITNUM,"
 Include:
 - Special-Purpose
","Domains:
 Include:
 - SV",SPC,,SV,"all:
 - name: SVPRESP
 operator: equal_to
 value:  Y 
 - name: VISITNUM
 operator: is_not_contained_by
 value: $tv_visitnum
",,"- domain: TV
 id: $tv_visitnum
 name: VISITNUM
 operator: distinct",,,3.4,Fully Executable,,,,,,,,1.0
CG0388,CDISC.SDTMIG.CG0388,CG0388,1.0,CG0388,1.0,CDISC,SDTMIG,3.4,2.0,--SCAN,"Valid values are ""Y"" and ""N"" and null.",Model v2.0,Events,Cited guidance updated. Reference to model section and item updated per new style.,- Cited Guidance: Valid values are  Y  and  N  and null. Document: Model v2.0 Item: --SCAN Section: Events,SDTM and SDTMIG Conformance Rules,Record,Error,,success,invalid,Raise an error when AESCAN is completed and value is not  Y  or  N,"AESCAN is completed, but not equal to  N  or  Y",,Range & Limit,--SCAN,--SCAN ^= null,"--SCAN in ('Y','N')","
 Include:
 - Events
","Domains:
 Include:
 - AE",EVT,,AE,"all:
 - name: AESCAN
 operator: non_empty
 - name: AESCAN
 operator: is_not_contained_by
 value: 
 -  Y 
 -  N",,,-  AESCAN,,3.4,Fully Executable,,,,,,Yes,,1.0
CG0387,CDISC.SDTMIG.CG0387,CG0387,1.0,CG0387,1.0,CDISC,SDTMIG,3.4,2.0,--SER,"Valid values are ""Y"" and ""N"".",Model v2.0,Events,Cited guidance updated. Reference to model section and item updated per new style.,- Cited Guidance: Valid values are  Y  and  N . Document: Model v2.0 Item: --SER Section: Events,SDTM and SDTMIG Conformance Rules,Record,Error,,success,invalid,Raise an error when AESER is completed and value is not  Y  or  N,"AESER is completed, but not equal to  N  or  Y",,Range & Limit,--SER,--SER ^= null,"--SER in ('Y','N')","
 Include:
 - Events
","Domains:
 Include:
 - AE",EVT,,AE,"all:
 - name: AESER
 operator: non_empty
 - name: AESER
 operator: is_not_contained_by
 value: 
 -  Y 
 -  N",,,-  AESER,,3.4,Fully Executable,,,,,,Yes,,1.0
CG0367,CDISC.SDTMIG.CG0367,CG0367,1.0,CG0367,1.0,CDISC,SDTMIG,3.4,2.0,RSUBJID,Identifier for a related study subject or pool of study subjects. The subject(s) may be human or animal. RSUBJID will be populated with the USUBJID of the related subject or the POOLID of the related pool. RSUBJID will be null for data about associated persons who are related to the study but not to any of the study subjects.,Model v2.0,Associated Persons,Cited guidance updated. Reference to model section and item updated per new style.,- Cited Guidance: Identifier for a related study subject or pool of study subjects. The subject(s) may be human or animal. RSUBJID will be populated with the USUBJID of the related subject or the POOLID of the related pool. RSUBJID will be null for data about associated persons who are related to the study but not to any of the study subjects. Document: Model v2.0 Item: RSUBJID Section: Associated Persons,SDTM and SDTMIG Conformance Rules,Value,Error,,success,invalid,Verify that RSUBJID=DM.USUBJID when RSUBJID is populated and RSUBJID is not equal to POOLID,RSUBJID must equal DM.USUBJID when RSUBJID is populated and RSUBJID does not equal POOLID,,Range & Limit,RSUBJID,RSUBJID ^=null and RSUBJID ^= POOLID,RSUBJID = DM.USUBJID,"
 Include:
 - Special-Purpose
","Domains:
 Exclude:
 - DM",AP,,ALL,"all:
 - name: RSUBJID
 operator: non_empty
 - name: RSUBJID
 operator: not_equal_to
 value: POOLID
 - name: RSUBJID
 operator: is_not_contained_by
 value: $dm_usubjid",,"- domain: DM
 id: $dm_usubjid
 name: USUBJID
 operator: distinct",,,3.4,Fully Executable,,,,,,Yes,,1.0
CG0389,CDISC.SDTMIG.CG0389,CG0389,1.0,CG0389,1.0,CDISC,SDTMIG,3.4,2.0,--SCONG,"Valid values are ""Y"" and ""N"" and null.",Model v2.0,Events,Cited guidance updated. Reference to model section and item updated per new style.,- Cited Guidance: Valid values are  Y  and  N  and null. Document: Model v2.0 Item: --SCONG Section: Events,SDTM and SDTMIG Conformance Rules,Record,Error,,success,invalid,Raise an error when AESCONG is completed and value is not  Y  or  N,"AESCONG is completed, but not equal to  N  or  Y",,Range & Limit,--SCONG,--SCONG ^= null,"--SCONG in ('Y','N')","
 Include:
 - Events
","Domains:
 Include:
 - AE",EVT,,AE,"all:
 - name: AESCONG
 operator: non_empty
 - name: AESCONG
 operator: is_not_contained_by
 value: 
 -  Y 
 -  N",,,-  AESCONG,,3.4,Fully Executable,,,,,,Yes,,1.0
CG0346,CDISC.SDTMIG.CG0346,CG0346,1.0,CG0346,1.0,CDISC,SDTMIG,3.4,2.0,,"If multiple values are reported for a topic variable (i.e., --TRT in an Interventions general-observation-class dataset or --TERM in an Events general-observation-class dataset), it is expected that the sponsor will split the values into multiple records or otherwise resolve the multiplicity per the sponsor's data management standard operating procedures.",IG v3.4,4.2.8.1,No Change,"- Cited Guidance: If multiple values are reported for a topic variable (i.e., --TRT in an Interventions general-observation-class dataset or --TERM in an Events general-observation-class dataset), it is expected that the sponsor will split the values into multiple records or otherwise resolve the multiplicity per the sponsor s data management standard operating procedures. Document: IG v3.4 Section: 4.2.8.1",SDTM and SDTMIG Conformance Rules,Record,Error,,success,invalid,Raise an error when --TERM =  MULTIPLE,--TERM is equal to  MULTIPLE,,Range & Limit,--TERM,,--TERM ^= 'MULTIPLE',"
 Include:
 - Events
","Domains:
 Include:
 - All",EVT,,ALL,"all:
 - name: --TERM
 operator: equal_to
 value: MULTIPLE
",,,-  --TERM,,3.4,Fully Executable,,,,,,Yes,,1.0
CG0345,CDISC.SDTMIG.CG0345,CG0345,1.0,CG0345,1.0,CDISC,SDTMIG,3.4,2.0,,"If multiple values are reported for a topic variable (i.e., --TRT in an Interventions general-observation-class dataset or --TERM in an Events general-observation-class dataset), it is expected that the sponsor will split the values into multiple records or otherwise resolve the multiplicity per the sponsor's data management standard operating procedures.",IG v3.4,4.2.8.1,No Change,"- Cited Guidance: If multiple values are reported for a topic variable (i.e., --TRT in an Interventions general-observation-class dataset or --TERM in an Events general-observation-class dataset), it is expected that the sponsor will split the values into multiple records or otherwise resolve the multiplicity per the sponsor s data management standard operating procedures. Document: IG v3.4 Section: 4.2.8.1",SDTM and SDTMIG Conformance Rules,Record,Error,,success,invalid,Raise an error when --TRT =  MULTIPLE,--TRT is equal to  MULTIPLE,,Range & Limit,--TRT,,--TRT ^= 'MULTIPLE',"
 Include:
 - Interventions
","Domains:
 Include:
 - All",INT,,ALL,"all:
 - name: --TRT
 operator: equal_to
 value: MULTIPLE",,,-  --TRT,,3.4,Fully Executable,,,,,,Yes,,1.0
CG0344,CDISC.SDTMIG.CG0344,CG0344,1.0,CG0344,1.0,CDISC,SDTMIG,3.4,2.0,,"If multiple result values (--ORRES) are reported for a test in a Findings class dataset, multiple records should be submitted for that --TESTCD.",IG v3.4,4.2.8.2,Updated citation.,"- Cited Guidance: If multiple result values (--ORRES) are reported for a test in a Findings class dataset, multiple records should be submitted for that --TESTCD. Document: IG v3.4 Section: 4.2.8.2",SDTM and SDTMIG Conformance Rules,Record,Error,,success,invalid,Raise an error when --TESTCD =  MULTIPLE,--TESTCD is equal to  MULTIPLE,,Range & Limit,--TESTCD,,--TESTCD ^= 'MULTIPLE',"
 Include:
 - Findings
","Domains:
 Include:
 - All",FND,,ALL,"all:
 - name: --TESTCD
 operator: equal_to
 value: MULTIPLE
",,,-  --TESTCD,,3.4,Fully Executable,,,,,,Yes,,1.0
CG0343,CDISC.SDTMIG.CG0343,CG0343,1.0,CG0343,1.0,CDISC,SDTMIG,3.4,2.0,,"Events: ""Other, Specify"" for Events may be handled similarly to Interventions. --TERM should be populated with the description of the event found in the specified text and --PRESP could be used to distinguish between prespecified and free text responses.",IG v3.4,4.2.7.3,No Change,"- Cited Guidance:  Events:  Other, Specify  for Events may be handled similarly to Interventions. --TERM should be populated with the description of the event found in the specified text and --PRESP could be used to distinguish between prespecified and free text responses.  Document: IG v3.4 Section: 4.2.7.3",SDTM and SDTMIG Conformance Rules,Record,Error,,success,invalid,Raise an error when --TERM =  OTHER,--TERM is equal to  OTHER,,Range & Limit,--TERM,,--TERM ^= 'OTHER',"
 Include:
 - Events
","Domains:
 Include:
 - All",EVT,,ALL,"all:
 - name: --TERM
 operator: equal_to
 value: OTHER
",,,-  --TERM,,3.4,Fully Executable,,,,,,Yes,,1.0
CG0342,CDISC.SDTMIG.CG0342,CG0342,1.0,CG0342,1.0,CDISC,SDTMIG,3.4,2.0,,"Interventions: If a list of specific treatments is provided along with ""Other, Specify"", --TRT should be populated with the name of the treatment found in the specified text.",IG v3.4,4.2.7.3,No Change,"- Cited Guidance:  Interventions: If a list of specific treatments is provided along with  Other, Specify , --TRT should be populated with the name of the treatment found in the specified text.  Document: IG v3.4 Section: 4.2.7.3",SDTM and SDTMIG Conformance Rules,Record,Error,,success,invalid,Raise an error when --TRT =  OTHER,--TRT is equal to  OTHER,,Range & Limit,--TRT,,--TRT ^= 'OTHER',"
 Include:
 - Interventions
","Domains:
 Include:
 - All",INT,,ALL,"all:
 - name: --TRT
 operator: equal_to
 value: OTHER",,,- --TRT,,3.4,Fully Executable,,,,,,Yes,,1.0
CG0341,CDISC.SDTMIG.CG0341,CG0341,1.0,CG0341,1.0,CDISC,SDTMIG,3.4,2.0,,"Findings: ""Other, Specify"" for tests may be handled similarly to Interventions. --TESTCD and --TEST should be populated with the code and description of the test found in the specified text. If specific tests are not prespecified on the CRF and the investigator has the option of writing in tests, then the name of the test would have to be coded to ensure that all --TESTCD and --TEST values are consistent with the test controlled terminology.",IG v3.4,4.2.7.3,No Change,"- Cited Guidance:  Findings:  Other, Specify  for tests may be handled similarly to Interventions. --TESTCD and --TEST should be populated with the code and description of the test found in the specified text. If specific tests are not prespecified on the CRF and the investigator has the option of writing in tests, then the name of the test would have to be coded to ensure that all --TESTCD and --TEST values are consistent with the test controlled terminology.  Document: IG v3.4",SDTM and SDTMIG Conformance Rules,Record,Error,,success,invalid,Raise an error when --TESTCD =  OTHER,--TESTCD is equal to  OTHER,,Range & Limit,--TESTCD,,--TESTCD ^= 'OTHER',"
 Include:
 - Findings
","Domains:
 Include:
 - All",FND,,ALL,"all:
 - name: --TESTCD
 operator: equal_to
 value: OTHER
",,,- --TESTCD,,3.4,Fully Executable,,,,,,Yes,,1.0
CG0390,CDISC.SDTMIG.CG0390,CG0390,1.0,CG0390,1.0,CDISC,SDTMIG,3.4,2.0,--SDISAB,"Valid values are ""Y"" and ""N"" and null.",Model v2.0,Events,Cited guidance updated. Reference to model section and item updated per new style.,- Cited Guidance: Valid values are  Y  and  N  and null. Document: Model v2.0 Item: --SDISAB Section: Events,SDTM and SDTMIG Conformance Rules,Record,Error,,success,invalid,Raise an error when AESDISAB is completed and value is not  Y  or  N,"AESDISAB is completed, but not equal to  N  or  Y",,Range & Limit,--SDISAB,--SDISAB ^= null,"--SDISAB in ('Y','N')","
 Include:
 - Events
","Domains:
 Include:
 - AE",EVT,,AE,"all:
 - name: AESDISAB
 operator: non_empty
 - name: AESDISAB
 operator: is_not_contained_by
 value:
 -  Y 
 -  N",,,-  AESDISAB,,3.4,Fully Executable,,,,,,Yes,,1.0
CG0391,CDISC.SDTMIG.CG0391,CG0391,1.0,CG0391,1.0,CDISC,SDTMIG,3.4,2.0,--SDTH,"Valid values are ""Y"" and ""N"" and null.",Model v2.0,Events,Cited guidance updated. Reference to model section and item updated per new style.,- Cited Guidance: Valid values are  Y  and  N  and null. Document: Model v2.0 Item: --SDTH Section: Events,SDTM and SDTMIG Conformance Rules,Record,Error,,success,invalid,Raise an error when AESDTH is completed and value is not  Y  or  N,"AESDTH is completed, but not equal to  N  or  Y",,Range & Limit,--SDTH,--SDTH ^= null,"--SDTH in ('Y','N')","
 Include:
 - Events
","Domains:
 Include:
 - AE",EVT,,AE,"all:
 - name: AESDTH
 operator: non_empty
 - name: AESDTH
 operator: is_not_contained_by
 value: 
 -  Y 
 -  N",,,-  AESDTH,,3.4,Fully Executable,,,,,,Yes,,1.0
CG0392,CDISC.SDTMIG.CG0392,CG0392,1.0,CG0392,1.0,CDISC,SDTMIG,3.4,2.0,--SHOSP,"Valid values are ""Y"" and ""N"" and null.",Model v2.0,Events,Cited guidance updated. Reference to model section and item updated per new style.,- Cited Guidance: Valid values are  Y  and  N  and null. Document: Model v2.0 Item: --SHOSP Section: Events,SDTM and SDTMIG Conformance Rules,Record,Error,,success,invalid,Raise an error when AESHOSP is completed and value is not  Y  or  N,"AESHOSP is completed, but not equal to  N  or  Y",,Range & Limit,--SHOSP,--SHOSP ^= null,"--SHOSP in ('Y','N')","
 Include:
 - Events
","Domains:
 Include:
 - AE",EVT,,AE,"all:
 - name: AESHOSP
 operator: non_empty
 - name: AESHOSP
 operator: is_not_contained_by
 value: 
 -  Y 
 -  N 
",,,-  AESHOSP,,3.4,Fully Executable,,,,,,Yes,,1.0
CG0420,CDISC.SDTMIG.CG0420,CG0420,1.0,CG0420,1.0,CDISC,SDTMIG,3.4,2.0,--STRF,The characterization of the start of an observation relative to the study reference period. The sponsor-defined reference period is a continuous period of time defined by a discrete starting point and a discrete ending point represented by RFSTDTC and RFENDTC in Demographics.,Model v2.0,Timing,Cited guidance updated. Reference to model section and item updated per new style.,- Cited Guidance: The characterization of the start of an observation relative to the study reference period. The sponsor-defined reference period is a continuous period of time defined by a discrete starting point and a discrete ending point represented by RFSTDTC and RFENDTC in Demographics. Document: Model v2.0 Item: --STRF Section: Timing,SDTM and SDTMIG Conformance Rules,Record,Warning,,success,invalid,"When --OCCUR =  N , --STRF must not be populated",--STRF is populated when --OCCUR =  N,,Range & Limit,--STRF,--OCCUR = 'N',--STRF = null,"
 Include:
 - Interventions
 - Events
","Domains:
 Include:
 - All","INT, EVT",,ALL,"all:
 - name: --OCCUR
 operator: equal_to
 value: N
 - name: --STRF
 operator: non_empty
",,,- USUBJID - --SEQ - --STRF,,3.4,Fully Executable,,,,,,Yes,,1.0
CG0393,CDISC.SDTMIG.CG0393,CG0393,1.0,CG0393,1.0,CDISC,SDTMIG,3.4,2.0,--SLIFE,"Valid values are ""Y"" and ""N"" and null.",Model v2.0,Events,Cited guidance updated. Reference to model section and item updated per new style.,- Cited Guidance: Valid values are  Y  and  N  and null. Document: Model v2.0 Item: --SLIFE Section: Events,SDTM and SDTMIG Conformance Rules,Record,Error,,success,invalid,Raise an error when AESLIFE is completed and value is not  Y  or  N,"AESLIFE is completed, but not equal to  N  or  Y",,Range & Limit,--SLIFE,--SLIFE ^= null,"--SLIFE in ('Y','N')","
 Include:
 - Events
","Domains:
 Include:
 - AE",EVT,,AE,"all:
 - name: AESLIFE
 operator: non_empty
 - name: AESLIFE
 operator: is_not_contained_by
 value: 
 -  Y 
 -  N",,,-  AESLIFE,,3.4,Fully Executable,,,,,,Yes,,1.0
CG0394,CDISC.SDTMIG.CG0394,CG0394,1.0,CG0394,1.0,CDISC,SDTMIG,3.4,2.0,--SOD,"Valid values are ""Y"" and ""N"" and null.",Model v2.0,Events,Cited guidance updated. Reference to model section and item updated per new style.,- Cited Guidance: Valid values are  Y  and  N  and null. Document: Model v2.0 Item: --SOD Section: Events,SDTM and SDTMIG Conformance Rules,Record,Error,,success,invalid,Raise an error when AESOD is completed and value is not  Y  or  N,"AESOD is completed, but not equal to  N  or  Y",,Range & Limit,--SOD,--SOD ^= null,"--SOD in ('Y','N')","
 Include:
 - Events
","Domains:
 Include:
 - AE",EVT,,AE,"all:
 - name: AESOD
 operator: non_empty
 - name: AESOD
 operator: is_not_contained_by
 value: 
 -  Y 
 -  N",,,-  AESOD,,3.4,Fully Executable,,,,,,Yes,,1.0
CG0395,CDISC.SDTMIG.CG0395,CG0395,1.0,CG0395,1.0,CDISC,SDTMIG,3.4,2.0,--SMIE,"Valid values are ""Y"" and ""N"" and null.",Model v2.0,Events,Cited guidance updated. Reference to model section and item updated per new style.,- Cited Guidance: Valid values are  Y  and  N  and null. Document: Model v2.0 Item: --SMIE Section: Events,SDTM and SDTMIG Conformance Rules,Record,Error,,success,invalid,Raise an error when AESMIE is completed and value is not  Y  or  N,"AESMIE is completed, but not equal to  N  or  Y",,Range & Limit,--SMIE,--SMIE ^= null,"--SMIE in ('Y','N')","
 Include:
 - Events
","Domains:
 Include:
 - AE",EVT,,AE,"all:
 - name: AESMIE
 operator: non_empty
 - name: AESMIE
 operator: is_not_contained_by
 value: 
 -  Y 
 -  N",,,-  AESMIE,,3.4,Fully Executable,,,,,,Yes,,1.0
CG0396,CDISC.SDTMIG.CG0396,CG0396,1.0,CG0396,1.0,CDISC,SDTMIG,3.4,2.0,--CONTRT,"Valid values are ""Y"" and ""N"" and null.",Model v2.0,Events,Cited guidance updated. Reference to model section and item updated per new style.,- Cited Guidance: Valid values are  Y  and  N  and null. Document: Model v2.0 Item: --CONTRT Section: Events,SDTM and SDTMIG Conformance Rules,Record,Error,,success,invalid,Raise an error when AECONTRT is completed and value is not  Y  or  N,"AECONTRT is completed, but not equal to  N  or  Y",,Range & Limit,--CONTRT,--CONTRT ^= null,"--CONTRT in ('Y','N')","
 Include:
 - Events
","Domains:
 Include:
 - AE",EVT,,AE,"all:
 - name: AECONTRT
 operator: non_empty
 - name: AECONTRT
 operator: is_not_contained_by
 value: 
 -  Y 
 -  N",,,-  AECONTRT,,3.4,Fully Executable,,,,,,Yes,,1.0
CG0417,CDISC.SDTMIG.CG0417,CG0417,2.0,CG0417,1.0,CDISC,SDTMIG,3.4,2.0,QNAM,"The value in QNAM cannot be longer than 8 characters; nor can it start with a number (e.g., '1TEST'). QNAM cannot contain characters other than letters; numbers; or underscores.",Model v2.0,Supplemental Qualifiers,Retired for IGs after 3.4.  Covered by CG0310 and QNAM is not applicable in NS--.,"- Cited Guidance: The value in QNAM cannot be longer than 8 characters; nor can it start with a number (e.g.,  1TEST ). QNAM cannot contain characters other than letters; numbers; or underscores. Document: Model v2.0 Item: QNAM Section: Supplemental Qualifiers",SDTM and SDTMIG Conformance Rules,Record,Error,,success,invalid,"Raise an error when QNAM > 8 chars or contains more than only letters in uppercase, numbers and underscores, or starts with a number.","QNAM > 8 chars or contains letters that are in not in uppercase, more than only letters, numbers, underscores, or starts with a number.","New version of Rule.

Corrected Class from Special Purpose to Relationship.

Retired for IGs after 3.4.  Covered by CG0310 and QNAM is not applicable in NS--.",Range & Limit,QNAM,,"QNAM value length <=8 and cannot start with a number and cannot contain characters other than letters in upper case, numbers, or underscores","
 Include:
 - Relationship
","Domains:
 Include:
 - SUPP--",REL,,SUPP--,"all:
 - name: QNAM
 operator: not_matches_regex
 value: ^[A-Z_][A-Z0-9_]{0,7}$",,,- IDVAR - IDVARVAL - QNAM,,3.4,Fully Executable,Final Review,Carlo,Final,,,Yes,,1.0
