Rule_Id,Core_Id,Rule_ID,Rule_ID_Version,Rule_Identifier_Id,Rule_Identifier_Rule_Version,Authority_Organization,Standards_Name,Standards_Version,Rule_Identifier_Conformance_Guide_Version,Cited_Item,Cited_Guidance,Cited_Doc,Cited_Section,Release_Notes,Citations,References_Origin,Sensitivity,Severity,verisian_comment,verisian_status,verisian_validity,Description,Outcome_Message,Discussion_Notes,Rule_Type,Variable,Condition,Rule,Scopes_Classes,Scopes_Domains,Class,Subclass,Dataset_or_Domain,Check,Match_Datasets,Operations,Outcome_Output_Variables,Related_Rule(s),Rule_Set,Jira_Executability,Team,Assigned_To,Update_Status,CORE_Programmability_Status,CORE_Programmability_Comments,Historical_Programmable,Historical_Programmable_Flag_Comment,Core_Version
CG0260,CDISC.SDTMIG.CG0260,CG0260,1.0,CG0260,1.0,CDISC,SDTMIG,3.4,2.0,Specification,"Null flavor for the value of TSPARM, to be populated if and only if TSVAL is null.",IG v3.4,7.4.2,Very slight change to cited guidance,"- Cited Guidance: Null flavor for the value of TSPARM, to be populated if and only if TSVAL is null. Document: IG v3.4 Item: Specification Section: 7.4.2",SDTM and SDTMIG Conformance Rules,Record,Error,,failing,missing,Trigger error when TSVAL is populated and TSVALNF is also populated.,TSVALNF is not null when TSVAL is populated,,Value Presence,TSVALNF,TSVAL ^= null,TSVALNF = null,"
 Include:
 - Trial Design
","Domains:
 Include:
 - TS",TDM,,TS,"all:
 - name: TSVAL
 operator: non_empty
 - name: TSVALNF
 operator: non_empty",,,,,3.4,Fully Executable,,,,,,Yes,,1.0
CG0259,CDISC.SDTMIG.CG0259,CG0259,1.0,CG0259,1.0,CDISC,SDTMIG,3.4,2.0,Specification,TSVAL can only be null when TSVALNF is populated.,IG v3.4,7.4.2,No Change,- Cited Guidance: TSVAL can only be null when TSVALNF is populated. Document: IG v3.4 Item: Specification Section: 7.4.2,SDTM and SDTMIG Conformance Rules,Record,Warning,,failing,missing,Trigger error when TSVAL is null and TSVALNF is null,TSVALNF is null when TSVAL is null.,,Value Presence,TSVALNF,TSVAL = null,TSVALNF ^= null,"
 Include:
 - Trial Design
","Domains:
 Include:
 - TS",TDM,,TS,"all:
 - name: TSVAL
 operator: empty
 - name: TSVALNF
 operator: empty",,,,,3.4,Fully Executable,,,,,,Yes,,1.0
CG0067,CDISC.SDTMIG.CG0067,CG0067,1.0,CG0067,1.0,CDISC,SDTMIG,3.4,2.0,Assumption 1,"For example, if a subject's survival status is ""DEAD"", the date of death must be stored in DM and within a final disposition record in DS.",IG v3.4,6.3.11,Cited guidance section updated.,"- Cited Guidance: For example, if a subject s survival status is  DEAD , the date of death must be stored in DM and within a final disposition record in DS. Document: IG v3.4 Item: Assumption 1 Section: 6.3.11",SDTM and SDTMIG Conformance Rules,Record,Error,,failing,invalid,Raise an error when SS.SSSTRESC =  DEAD  and DSDECOD ^=  DEATH .,"DSDECOD is not  DEATH , When SS.SSSTRESC =  DEAD .",,Value Presence,DSDECOD,SS.SSSTRESC = 'DEAD',DSDECOD = 'DEATH',"
 Include:
 - Findings
","Domains:
 Include:
 - SS",EVT,,DS,"all:
 - name: SSSTRESC
 operator: equal_to
 value:  DEAD 
 value_is_literal: true
 - name:  $ds_dsdecod 
 operator: does_not_contain
 value: DEATH
 value_is_literal: true
",,"- operator:  distinct 
 domain:  DS 
 name:  DSDECOD 
 id:  $ds_dsdecod 
 group:
 - USUBJID",- SSSTRESC,,3.4,Fully Executable,,,,,,Yes,,1.0
CG0547,CDISC.SDTMIG.CG0547,CG0547,1.0,CG0547,1.0,CDISC,SDTMIG,3.4,2.0,Assumption 3.a,"The start date/time of the Disease Milestone is the critical date/time, and must be populated. If the Disease Milestone is an event, then the meaning of “start date” for the event may need to be defined.",IG v3.4,5.4,Section change in IG 3.4,"- Cited Guidance:  The start date/time of the Disease Milestone is the critical\ \ date/time, and must be populated. If the Disease Milestone is an event, then\ \ the meaning of \u201Cstart date\u201D for the event may need to be defined.  Document: SDTMIG v3.4 Section:  5.4",SDTM and SDTMIG Conformance Rules,Record,Warning,,failing,missing,Raise an error when SMSTDTC is null.,SMSTDTC is null.,,Value Presence,SMSTDTC,,SMSTDTC ^= null,"
 Include:
 - Special-Purpose
","Domains:
 Include:
 - SM",SPC,,SM,"all:
 - name: SMSTDTC
 operator: empty
",,,,,3.4,Fully Executable,,,,,,,,1.0
CG0081,CDISC.SDTMIG.CG0081,CG0081,1.0,CG0081,1.0,CDISC,SDTMIG,3.4,2.0,--PRESP|--OCCUR|STAT,"Events[--PRESP][An indication that the event was prospectively stated or detailed on the CRF.]|Events|[--OCCUR][An indication as to whether a prespecified event has occurred.]|Events[--STAT][Used to indicate when a question about the occurrence of a prespecified event was not answered.]|Interventions[--PRESP][An indication that the intervention was prospectively stated or detailed on the CRF.]|Interventions[--OCCUR][An indication as to whether a prespecified intervention has occurred.]|Interventions[--STAT][Used to indicate when a question about the occurrence of a prespecified intervention was not answered. Should be null or have a value of ""NOT DONE"".]",Model v2.0,Events|Interventions,Cited guidance updated. Reference to model section and item updated per new style.,- Cited Guidance: An indication that the event was prospectively stated or detailed on the CRF. Document: Model v2.0 Item: --PRESP Section: Events - Cited Guidance: An indication as to whether a prespecified event has occurred. Document: Model v2.0 Item: --OCCUR Section: Events - Cited Guidance: Used to indicate when a question about the occurrence of a prespecified event was not answered. Document: Model v2.0 Item: STAT Section: Events - Cited Guidance: An indicati,SDTM and SDTMIG Conformance Rules,Record,Error,,failing,missing,Raise an error when --STAT not equal to  NOT DONE  when --PRESP =  Y  and --OCCUR is null,--STAT should equal  NOT DONE  when --PRESP =  Y  and --OCCUR = null,,Value Presence,--STAT,--PRESP = 'Y' and --OCCUR = null,--STAT = 'NOT DONE',"
 Include:
 - Events
 - Interventions
","Domains:
 Exclude:
 - DS
 - DV
 - EX","EVT, INT",,"NOT(DS, DV, EX)","all:
 - name: --PRESP
 operator: equal_to
 value:  Y 
 - name: --OCCUR
 operator: empty
 - name: --STAT
 operator: not_equal_to
 value: NOT DONE
",,,- --STAT - --PRESP - --OCCUR,,3.4,Fully Executable,,,,,,Yes,,1.0
CG0541,CDISC.SDTMIG.CG0541,CG0541,1.0,CG0541,1.0,CDISC,SDTMIG,3.4,2.0,Specification,"The value should be ""Y"" or null.",IG v3.4,Various Findings Domains,No Change,- Cited Guidance: The value should be  Y  or null. Document: IG v3.4 Item: Specification Section: Various Findings Domains,SDTM and SDTMIG Conformance Rules,Record,Error,,failing,missing,Raise an error when --LOBXFL is not  Y  or null,Value of --LOBXFL must be  Y  or null,,Value Presence,--LOBXFL,,Value must be 'Y' or null,"
 Include:
 - Findings
","Domains:
 Include:
 - All",FND,,ALL,"all:
 - name: --LOBXFL
 operator: not_equal_to
 value:  Y 
 - name: --LOBXFL
 operator: non_empty",,,- --CAT - --TEST - --TESTCD - --LOBXFL,,3.4,Fully Executable,,,,,,,,1.0
CG0163,CDISC.SDTMIG.CG0163,CG0163,1.0,CG0163,1.0,CDISC,SDTMIG,3.4,2.0,Specification,Identifying variable in the parent dataset that identifies the record(s) to which the comment applies. Examples AESEQ or CMGRPID. Used only when individual comments are related to domain records. Null for comments collected on separate CRFs.,IG v3.4,5.1,Retired as of SDTMIG 4.0,- Cited Guidance: Identifying variable in the parent dataset that identifies the record(s) to which the comment applies. Examples AESEQ or CMGRPID. Used only when individual comments are related to domain records. Null for comments collected on separate CRFs. Document: IG v3.4 Item: Specification Section:  5.1,SDTM and SDTMIG Conformance Rules,Record,Warning,,failing,missing,IDVAR must be specified.,"IDVAR should not be missing when RDOMAIN is not in (empty, DM).",,Value Presence,IDVAR,"Comment related to Domain Records and RDOMAIN not in (null, 'DM')",IDVAR ^= null,"
 Include:
 - Special-Purpose
","Domains:
 Include:
 - CO",SPC,,CO,"any:
 - all:
 - name: RDOMAIN
 operator: non_empty
 - name: RDOMAIN
 operator: not_equal_to
 value: DM
 value_is_literal: True
 - name: IDVAR
 operator: empty",,,- RDOMAIN - IDVAR,,3.4,Fully Executable,,,,,,Conditional,Dependent on additional appropriate metatdata,1.0
CG0361,CDISC.SDTMIG.CG0361,CG0361,1.0,CG0361,1.0,CDISC,SDTMIG,3.4,2.0,USUBJID|POOLID,USUBJID[Either USUBJID or POOILD must be populated.]|POOLID[Either USUBJID or POOLID must be populated.],Model v2.0,RELSUB,Cited guidance updated. Reference to model section and item updated per new style.,- Cited Guidance:   USUBJID: Either USUBJID or POOILD must be populated.   Document: Model v2.0 Item: USUBJID Section: RELSUB - Cited Guidance:   POOILD: Either USUBJID or POOILD must be populated.    Document: Model v2.0 Item: POOLID Section: RELSUB,SDTM and SDTMIG Conformance Rules,Value,Error,,failing,invalid,"Verify that When USUBJID is populated, POOLID is not populated",POOLID must be null when USUBJID is populated,,Value Presence,POOLID,USUBJID ^= null,POOLID = null,"
 Include:
 - Special-Purpose
","Domains:
 Include:
 - RELSUB",SPC,,RELSUB,"all:
 - name: USUBJID
 operator: non_empty
 - name: POOLID
 operator: non_empty",,,-  USUBJID  -  POOLID,,3.4,Fully Executable,,,,,,Yes,,1.0
CG0006,CDISC.SDTMIG.CG0006,CG0006,2.0,CG0006,2.0,CDISC,SDTMIG,3.4,2.0,,"The Study Day value is incremented by 1 for each date following RFSTDTC. Dates prior to RFSTDTC are decreased by 1, with the date preceding RFSTDTC designated as Study Day -1 (there is no Study Day 0). . . . All Study Day values are integers. Thus, to calculate Study Day: --DY = (date portion of --DTC) - (date portion of RFSTDTC) + 1 if --DTC is on or after RFSTDTC --DY = (date portion of --DTC) - (date portion of RFSTDTC) if --DTC precedes RFSTDTC This algorithm should be used across all domains.",IG v3.4,4.4.4,No Change; retired as of IG v4.0. replaced with rule applying to all domains except DC.,"- Cited Guidance: The Study Day value is incremented by 1 for each date following RFSTDTC. Dates prior to RFSTDTC are decreased by 1, with the date preceding RFSTDTC designated as Study Day -1 (there is no Study Day 0)....All Study Day values are integers. Thus to calculate Study Day, --DY = (date portion of --DTC) - (date portion of RFSTDTC) + 1 if --DTC is on or after RFSTDTC, --DY = (date portion of --DTC) - (date portion of RFSTDTC) if --DTC precedes RFSTDTC. This algorithm should be used",SDTM and SDTMIG Conformance Rules,Record,Error,,failing,invalid,Raise an error when --DY is not calculated as per the study day algorithm as a non-zero integer value when the date portion of --DTC is complete and the date portion of DM.RFSTDTC is a complete date AND --DY is not empty,"--DY is not calculated correctly even though the date portion of --DTC is complete, the date portion of DM.RFSTDTC is a complete date, and --DY is not empty.",replaced with new rule in 4.0,Value Presence,--DY,Date portion of --DTC is complete and date portion of RFSTDTC is a complete date AND --DY is ^= null ,--DY calculated as per the study day algorithm as a non-zero integer value ,"
 Include:
 - All
","Domains:
 Include:
 - All",ALL,,ALL,"all:
 - name: --DY
 operator: non_empty
 - name: --DTC
 operator: is_complete_date
 - name: RFSTDTC
 operator: is_complete_date
 - name: --DY # checking failure criteria
 operator: not_equal_to
 value: $val_dy # this is created in the operations statement that follows","- Name: DM
 Keys:
 - USUBJID
","- name: --DTC
 operator: dy # does dy op take into acct +1?
 id: $val_dy # ex in devops 2538 used -- but that threw an error",- --DY - --DTC - RFSTDTC,,3.4,Fully Executable,Final Review,Carlo,Final,,,Yes,,1.0
CG0007,CDISC.SDTMIG.CG0007,CG0007,1.0,CG0007,1.0,CDISC,SDTMIG,3.4,2.0,,"The permissible Study Day variables (--DY, --STDY, and --ENDY) . . . are determined by comparing the date portion of the respective date/time variables (--DTC, --STDTC, and --ENDTC) to the date portion of the Subject Reference Start Date (RFSTDTC from the Demographics domain).",IG v3.4,4.4.4,,"- Cited Guidance: The permissible Study Day variables (--DY, --STDY, and --ENDY) . . . are determined by comparing the date portion of the respective date/time variables (--DTC, --STDTC, and --ENDTC) to the date portion of the Subject Reference Start Date (RFSTDTC from the Demographics domain) Document: SDTMIG v3.4 Section: 4.4.4",SDTM and SDTMIG Conformance Rules,Record,Error,,failing,invalid,"Raise an error when the date portion of --DTC is an incomplete date and the date portion of DM.RFSTDTC is an incomplete date, but --DY is not empty","The date portion of --DTC is not complete date or the date portion of DM.RFSTDTC is not complete date, but --DY is not empty",,Value Presence,--DY,The date portion of --DTC ^= complete date or the date portion of DM.RFSTDTC ^= complete date,--DY = null,"
 Include:
 - All
","Domains:
 Include:
 - All",ALL,,ALL,"all:
 - name: --DY
 operator: non_empty
 - any:
 - name: --DTC
 operator: is_incomplete_date
 - name: RFSTDTC
 operator: is_incomplete_date","- Name: DM
 Keys:
 - USUBJID
",,- --DY - --DTC - RFSTDTC,,3.4,Fully Executable,,,,,,Yes,,1.0
CG0114,CDISC.SDTMIG.CG0114,CG0114,1.0,CG0114,1.0,CDISC,SDTMIG,3.4,2.0,--DOSU,"Units for --DOSE, --DOSTOT, or --DOSTXT",Model v2.0,Interventions,Cited guidance updated. Reference to model section and item updated per new style.,"- Cited Guidance: Units for --DOSE, --DOSTOT, or --DOSTXT Document: Model v2.0 Item: --DOSU Section: Interventions",SDTM and SDTMIG Conformance Rules,Record,Error,,failing,invalid,Raise an error when --DOSU = null and (--DOSE ^= null or --DOSTOT ^= null or --DOSTXT ^= null),"Missing value for --DOSU, when --DOSE, --DOSTXT or --DOSTOT is provided",,Value Presence,--DOSU,--DOSE ^= null or --DOSTOT ^= null or --DOSTXT ^= null,--DOSU ^= null,"
 Include:
 - Interventions
","Domains:
 Include:
 - All",INT,,ALL,"all:
 - name: --DOSU
 operator: empty
 - any:
 - name: --DOSE
 operator: non_empty
 - name: --DOSTXT
 operator: non_empty
 - name: --DOSTOT
 operator: non_empty",,,- --DOSE - --DOSTXT - --DOSTOT - --DOSU,,3.4,Fully Executable,,,,,,Yes,,1.0
CG0111,CDISC.SDTMIG.CG0111,CG0111,1.0,CG0111,1.0,CDISC,SDTMIG,3.4,2.0,--DOSTXT,Not populated when --DOSE is populated.,Model v2.0,Interventions,Cited guidance updated. Reference to model section and item updated per new style.,- Cited Guidance: Not populated when --DOSE is populated. Document: Model v2.0 Item: --DOSTXT Section: Interventions,SDTM and SDTMIG Conformance Rules,Record,Error,,failing,invalid,Raise an error when --DOSTXT ^= null and --DOSE ^= null,Both --DOSE and --DOSTXT values are populated,,Value Presence,--DOSTXT,--DOSE ^= null,--DOSTXT = null,"
 Include:
 - Interventions
","Domains:
 Include:
 - All",INT,,ALL,"all:
 - name: --DOSE
 operator: non_empty
 - name: --DOSTXT
 operator: non_empty",,,- --DOSE - --DOSTXT,,3.4,Fully Executable,,,,,,Yes,,1.0
CG0221,CDISC.SDTMIG.CG0221,CG0221,1.0,CG0221,1.0,CDISC,SDTMIG,3.4,2.0,,"The permissible Study Day variables (--DY, --STDY, and --ENDY) describe the relative day of the observation starting with the reference date as Day 1. They are determined by comparing the date portion of the respective date/time variables (--DTC, --STDTC, and --ENDTC) to the date portion of the Subject Reference Start Date (RFSTDTC from the Demographics domain).][All Study Day values are integers. Thus, to calculate Study Day: --DY = (date portion of --DTC) - (date portion of RFSTDTC) + 1 if --DTC is on or after RFSTDTC, --DY = (date portion of --DTC) - (date portion of RFSTDTC) if --DTC precedes RFSTDTC. This algorithm should be used across all domains.",IG v3.4,4.4.4,No Change,"- Cited Guidance:  The permissible Study Day variables (--DY, --STDY, and --ENDY) describe the relative day of the observation starting with the reference date as Day 1. They are determined by comparing the date portion of the respective date/time variables (--DTC, --STDTC, and --ENDTC) to the date portion of the Subject Reference Start Date (RFSTDTC from the Demographics domain).  Document: IG v3.4 Section: 4.4.4 - Cited Guidance:  All Study Day values are integers. Thus, to cal",SDTM and SDTMIG Conformance Rules,Record,Warning,,failing,invalid,"Trigger error if --STDTC or DM.RFSTDTC does not contain complete values in their date portion, and --STDY is not null.",--STDY is not null when either --STDTC or DM.RFSTDTC do not contain complete values in their date portion,,Value Presence,--STDY,--STDTC or DM.RFSTDTC does not contain complete values in their date portion,--STDY = null,"
 Include:
 - All
","Domains:
 Include:
 - All",ALL,,ALL,"any:
 - all:
 - name: --STDTC
 operator: is_incomplete_date
 - name: --STDY
 operator: non_empty
 - all:
 - name: RFSTDTC
 operator: is_incomplete_date
 - name: --STDY
 operator: non_empty","- Name: DM
 Keys:
 -  USUBJID 
",,- USUBJID - --STDTC - RFSTDTC,,3.4,Fully Executable,,,,,,Yes,,1.0
CG0549,CDISC.SDTMIG.CG0549,CG0549,2.0,CG0549,1.0,CDISC,SDTMIG,3.4,2.0,--STREFC,Reference value for the result or finding copied or derived from --ORREF in a standard format.,Model v2.0,Findings,Cited guidance updated. Reference to model section and item updated per new style.,- Cited Guidance: Reference value for the result or finding copied or derived from --ORREF in a standard format. Document: SDTM v2.0 Item: --STREFC Section: Findings,SDTM and SDTMIG Conformance Rules,Record,Warning,,not implemented,,Raise an error when (--ORREF ^= null or --DRVFL= Y ) and --STREFC is null.,--STREFC is null when --ORREF is non-empty or --DRVFL is equal to  Y,"New version of rule.

Previously --STREFC was required based on --ORRES and --DRVFL.

But not all derived records will have --STREFC, making the rule overly sensitive.",Value Presence,--STREFC,--STERFN ^= null,--STREFC ^= null,"
 Include:
 - Findings
","Domains:
 Include:
 - All",FND,,ALL,"all:
 - any:
 - name: --ORREF
 operator: non_empty
 - name: --DRVFL
 operator: equal_to
 value: Y
 - name: --STREFC
 operator: empty",,,- --ORREF - --DRVFL - --STREFC,,3.4,Fully Executable,Final Review,Carlo,Final,,,,,1.0
CG0523,CDISC.SDTMIG.CG0523,CG0523,1.0,CG0523,1.0,CDISC,SDTMIG,3.4,2.0,Assumption 4,Both ARMCD and ACTARMCD will be null for subjects who were not assigned to treatment.  The same reason will provide the reason that both are null.,IG v3.4,5.2,"Rule retired for IGs after 3.4, replaced by a rule that addresses both DM and DC.",- Cited Guidance: Both ARMCD and ACTARMCD will be null for subjects who were not assigned to treatment. The same reason will provide the reason that both are null. Document: IG v3.4 Item: Assumption 4 Section:  5.2,SDTM and SDTMIG Conformance Rules,Record,Warning,,not implemented,,Trigger error when ARMCD is populated for a subject who was not assigned to treatment,ARMCD is populated for a subject who was not assigned to treatment,"Rule retired for IGs after 3.4, replaced by a rule that addresses both DM and DC.",Value Presence,ARMCD,Subject not assigned to treatment,ARMCD = null,"
 Include:
 - Special-Purpose
","Domains:
 Include:
 - DM",SPC,,DM,"all:
 - name: null
 operator: null
 - name: ARMCD
 operator: non_empty",,,,,3.4,Not Executable,MSI / Final Review,Carlo,Final,,,,,1.0
CG0524,CDISC.SDTMIG.CG0524,CG0524,1.0,CG0524,1.0,CDISC,SDTMIG,3.4,2.0,Assumption 4,Both ARMCD and ACTARMCD will be null for subjects who were not assigned to treatment.  The same reason will provide the reason that both are null.,IG v3.4,5.2,"Rule retired for IGs after 3.4, replaced by a rule that addresses both DM and DC.",- Cited Guidance: Both ARMCD and ACTARMCD will be null for subjects who were not assigned to treatment. The same reason will provide the reason that both are null. Document: IG v3.4 Item: Assumption 4 Section:  5.2,SDTM and SDTMIG Conformance Rules,Record,Warning,,not implemented,,Trigger error when ACTARMCD is populated for a subject who was not assigned to treatment,ACTARMCD is populated for a subject who was not assigned to treatment,"Rule retired for IGs after 3.4, replaced by a rule that addresses both DM and DC.",Value Presence,ACTARMCD,Subject not assigned to treatment,ACTARMCD = null,"
 Include:
 - Special-Purpose
","Domains:
 Include:
 - DM",SPC,,DM,"all:
 - name: null
 operator: null
 - name: ACTARMCD
 operator: non_empty",,,,,3.4,Not Executable,MSI / Final Review,Carlo,Final,,,,,1.0
CG0159,CDISC.SDTMIG.CG0159,CG0159,1.0,CG0159,1.0,CDISC,SDTMIG,3.4,2.0,Specification,RSUBJID will be populated with the USUBJID of the related subject or the POOLID of the related pool.,AP Guide v1.0,2.1.1,No Change,- Cited Guidance: RSUBJID will be populated with the USUBJID of the related subject or the POOLID of the related pool. Document: AP Guide v1.0 Item: Specification Section: 2.1.1,SDTM and SDTMIG Conformance Rules,Record,Warning,,not implemented,,Trigger error if relationship described is to a study (but not to individual study subject) and RSUBJID is not null,Relationship described is to a study (but not to individua study subject) and RSUBJID is not null,,Value Presence,RSUBJID,Relationship described is to a study but not to individual study subjects,RSUBJID = null,"
 Include:
 - Associated Persons
","Domains:
 Include:
 - All",AP,,ALL,"all:
 - name: null
 operator: null
 - name: RSUBJID
 operator: non_empty",,,,,3.4,Not Executable,,,,,,Conditional,Dependent on additional appropriate metatdata,1.0
CG0251,CDISC.SDTMIG.CG0251,CG0251,1.0,CG0251,1.0,CDISC,SDTMIG,3.4,2.0,Assumption 3,TABRANCH describes the outcome of a branch decision point in the trial design for subjects in the Arm.,IG v3.4,7.2.1,No Change,- Cited Guidance: TABRANCH describes the outcome of a branch decision point in the trial design for subjects in the Arm. Document: IG v3.4 Item: Assumption 3 Section: 7.2.1,SDTM and SDTMIG Conformance Rules,Record,Warning,,not implemented,,Trigger error when trial design branches and TABRANCH is null,TABRANCH is null when trial design branches,,Value Presence,TABRANCH,Trial design branches,TABRANCH ^= null,"
 Include:
 - Trial Design
","Domains:
 Include:
 - TA",TDM,,TA,"all:
 - name: null
 operator: null
 - name: TABRANCH
 operator: empty",,,,,3.4,Not Executable,,,,,,Conditional,Dependent on additional appropriate metatdata,1.0
CG0252,CDISC.SDTMIG.CG0252,CG0252,1.0,CG0252,1.0,CDISC,SDTMIG,3.4,2.0,Specification,"If the trial design allows a subject to transition to an Element other than the next Element in sequence, then the conditions for transitioning to those other Elements, and the alternative Element sequences, are specified in this rule (e.g., Responders go to washout).",IG v3.4,7.2.1,No Change,"- Cited Guidance: If the trial design allows a subject to transition to an Element other than the next Element in sequence, then the conditions for transitioning to those other Elements, and the alternative Element sequences, are specified in this rule (e.g., Responders go to washout). Document: IG v3.4 Item: Specification Section: 7.2.1",SDTM and SDTMIG Conformance Rules,Record,Warning,,not implemented,,"Trigger error when trial Design allows for a Subject to transition to an Element other than the next Element in sequence, and TATRANS is null",TATRANS is null when trial Design allows for a Subject to transition to an Element other than the next Element in sequence,,Value Presence,TATRANS,Trial Design allows for a Subject to transition to an Element other than the next Element in sequence,TATRANS ^= null,"
 Include:
 - Trial Design
","Domains:
 Include:
 - TA",TDM,,TA,"all:
 - name: null
 operator: null
 - name: TATRANS
 operator: empty",,,,,3.4,Not Executable,,,,,,Conditional,Dependent on additional appropriate metatdata,1.0
CG0254,CDISC.SDTMIG.CG0254,CG0254,1.0,CG0254,1.0,CDISC,SDTMIG,3.4,2.0,Specification,The number of this version of the Inclusion/Exclusion criteria. May be omitted if there is only one version.,IG v3.4,7.4.1,No Change,- Cited Guidance: The number of this version of the Inclusion/Exclusion criteria. May be omitted if there is only one version. Document: IG v3.4 Item: Specification Section: 7.4.1,SDTM and SDTMIG Conformance Rules,Study,Warning,,not implemented,,Trigger error when TIVERS is not present in the data and there is more than one version of the IE criteria,TIVERS is not present in the data when there is more than one version of the IE criteria,,Value Presence,TIVERS,Greater than one version of the IE criteria,TIVERS present in dataset,"
 Include:
 - Trial Design
","Domains:
 Include:
 - TI",TDM,,TI,"all:
 - name: null
 operator: null
 - name: TIVERS
 operator: exists",,,,,3.4,Not Executable,,,,,,Yes,,1.0
CG0096,CDISC.SDTMIG.CG0096,CG0096,1.0,CG0096,1.0,CDISC,SDTMIG,3.4,2.0,IG v3.4[6.1.2][Assumption 2c]|IG v3.4[6.1.2][Specification],"IG v3.4[6.1.2][Assumption 2c][CMDECOD is the standardized medication/therapy term derived by the sponsor from the coding dictionary. It is expected that the reported term (CMTRT) or the modified term (CMMODIFY) will be coded using a standard dictionary.]|IG v3.4[6.1.2][Specification][Standardized or dictionary-derived text description of CMTRT or CMMODIFY. Equivalent to the generic drug name in WHO Drug. The sponsor is expected to provide the dictionary name and version used to map the terms utilizing the external codelist element in the Define-XML document. If an intervention term does not have a decode value in the dictionary, then CMDECOD will be left blank.]",IG v3.4,IG v3.4[6.1.2],"Cited guidance updated. 

Rule Retired for IGs after v3.4, replaced with a broader rule for all interventions.",- Cited Guidance:  CMDECOD is the standardized medication/therapy term derived by the sponsor from the coding dictionary. It is expected that the reported term (CMTRT) or the modified term (CMMODIFY) will be coded using a standard dictionary  Document: IG v3.4 Item: Assumption 2c Section: 6.1.2 - Cited Guidance:  Standardized or dictionary-derived text description of CMTRT or CMMODIFY. Equivalent to the generic medication name in WHO Drug. The sponsor is expected to provide t,SDTM and SDTMIG Conformance Rules,Record,Error,,not implemented,,"Raise an error when CMTRT is populated, CMDECOD is empty",CMDECOD must be populated when CMTRT is populated,"Rule Retired for IGs after v3.4, replaced with a broader rule for all interventions.",Value Presence,CMDECOD,CMTRT has a decode value in the dictionary,CMDECOD ^= null,"
 Include:
 - Interventions
","Domains:
 Include:
 - CM",INT,,CM,"all:
 - name: CMTRT
 operator: non_empty
 - name: CMDECOD
 operator: empty",,,-  CMTRT  -  CMDECOD,,3.4,Fully Executable,Final Review,Carlo,Final,,,Conditional,Dependent on additional non-CDISC metadata,1.0
CG0099,CDISC.SDTMIG.CG0099,CG0099,1.0,CG0099,1.0,CDISC,SDTMIG,3.4,2.0,--MODIFY,A value which represents an alteration to a collected value for coding purposes. Synonym Qualifier of --TRT.,Model v2.0,Interventions,Cited guidance updated. Reference to model section and item updated per new style.,- Cited Guidance: A value which represents an alteration to a collected value for coding purposes. Synonym Qualifier of --TRT. Document: Model v2.0 Item: --MODIFY Section: Interventions,SDTM and SDTMIG Conformance Rules,Record,Warning,,not implemented,,Trigger error if --TRT represents an alteration to the collected value for coding purposes and --MODIFY is null,--MODIFY is null when --TRT represents an alteration to the collected value.,,Value Presence,--MODIFY,--TRT modified,--MODIFY ^= null,"
 Include:
 - Interventions
","Domains:
 Include:
 - CM
 - SU",INT,,"CM, SU","all:
 - name: --MODIFY
 operator: empty
",,,,,3.4,Not Executable,,,,,,Conditional,Dependent on additional non-CDISC metadata,1.0
CG0110,CDISC.SDTMIG.CG0110,CG0110,1.0,CG0110,1.0,CDISC,SDTMIG,3.4,2.0,--DOSE,Not populated when --DOSTXT is populated.,Model v2.0,Interventions,Cited guidance updated. Reference to model section and item updated per new style.,- Cited Guidance: Not populated when --DOSTXT is populated. Document: Model v2.0 Item: --DOSE Section: Interventions - Cited Guidance: Not populated when --DOSE is populated. Document: Model v2.0 Item: --DOSETXT Section: Interventions,SDTM and SDTMIG Conformance Rules,Record,Error,,not implemented,,Raise an error when --DOSE ^= null and --DOSTXT ^= null.,Both --DOSE and --DOSTXT values are populated,,Value Presence,--DOSE,--DOSTXT ^= null,--DOSE = null,"
 Include:
 - Interventions
","Domains:
 Include:
 - All",INT,,ALL,"all:
 - name: --DOSTXT
 operator: non_empty
 - name: --DOSE
 operator: non_empty
",,,- --DOSE - --DOSTXT,,3.4,Fully Executable,,,,,,Yes,,1.0
CG0132,CDISC.SDTMIG.CG0132,CG0132,1.0,CG0132,1.0,CDISC,SDTMIG,3.4,2.0,Accounting for Long-Term Follow-up|Assumption 1,"4.5.8[4. If the subject's survival status is ""dead"", the Demographics (DM) variables DTHDTC and DTHFL must be appropriately populated.]|6.3.11[For example, if a subject's survival status is ""DEAD"", the date of death must be stored in DM and within a final disposition record in DS.]",IG v3.4,4.5.8|6.3.11,"Change in section, and added similar citation in additional section","- Cited Guidance: 4.5.8[4. If the subject s survival status is  dead , the Demographics (DM) variables DTHDTC and DTHFL must be appropriately populated.]|6.3.11[For example, if a subject s survival status is  DEAD , the date of death must be stored in DM and within a final disposition record in DS.]. Document: IG v3.4 Item: Accounting for Long-Term Follow-up|Assumption 1 Section: 4.5.8|6.3.11",SDTM and SDTMIG Conformance Rules,Record,Error,,not implemented,,Raise an error when DTHFL not equal to  Y  and SS.SSSTRESC =  DEAD .,"DTHFL is not  Y , when SS.SSSTRESC equals  DEAD",,Value Presence,DTHFL,SS.SSSTRESC = 'DEAD',DTHFL = 'Y',"
 Include:
 - Findings
","Domains:
 Include:
 - SS",SPC,,DM,"all:
 - name: SSSTRESC
 operator: equal_to
 value:  DEAD 
 - name: DTHFL
 operator: not_equal_to
 value:  Y 
","- Name: DM
 Keys:
 - USUBJID
",,- DTHFL - SSSTRESC,,3.4,Fully Executable,,,,,,Yes,,1.0
CG0133,CDISC.SDTMIG.CG0133,CG0133,1.0,CG0133,1.0,CDISC,SDTMIG,3.4,2.0,Specification | DD Description,"5.2 [Indicates the subject died. Should be ""Y"" or null. Should be populated even when the death date is unknown.] | 6.3.2 [A findings domain that contains the diagnosis of the cause of death for a subject.]",IG v3.4,5.2 | 6.3.2,No Change,- Cited Guidance: Indicates the subject died. Should be  Y  or null. Should be populated even when the death date is unknown Document: IG v3.4 Item: Specification Section:  5.2  - Cited Guidance: A findings domain that contains the diagnosis of the cause of death for a subject. Document: IG v3.4 Item: DD,SDTM and SDTMIG Conformance Rules,Dataset,Warning,,not implemented,,Raise an error when there is a DD record present for a subject but DTHFL is not equal  Y,"DD record present for subject, but DTHFL is not equal to  Y .",,Value Presence,DTHFL,DD record present for subject,DTHFL = 'Y',"
 Include:
 - Special-Purpose
","Domains:
 Include:
 - DM",SPC,,DM,"all:
 - name: DTHFL
 operator: empty
","- Name: DD
 Keys:
 - USUBJID
",,,,3.4,Fully Executable,,,,,,Yes,,1.0
CG0267,CDISC.SDTMIG.CG0267,CG0267,1.0,CG0267,1.0,CDISC,SDTMIG,3.4,2.0,Specification,"The version number of the Reference Terminology, if applicable.",IG v3.4,7.4.2,No Change,"- Cited Guidance: The version number of the Reference Terminology, if applicable. Document: IG v3.4 Item: Specification Section: 7.4.2",SDTM and SDTMIG Conformance Rules,Record,Warning,,not implemented,,Trigger error when Reference Terminology is versioned and TSVCDVER is null,TSVCDVER is null when Reference Terminology is versioned,,Value Presence,TSVCDVER,Reference Terminology is versioned.,TSVCDVER ^= null,"
 Include:
 - Trial Design
","Domains:
 Include:
 - TS",TDM,,TS,"all:
 - name: TSVCDREF
 operator: is_contained_by
 value: null
 - name: TSVCDVER
 operator: is_empty",,,,,3.4,Not Executable,,,,,,Yes,,1.0
CG0328,CDISC.SDTMIG.CG0328,CG0328,1.0,CG0328,1.0,CDISC,SDTMIG,3.4,2.0,Specification|Assumption 12,Specification[Either TEENRL or TEDUR must be present for each Element.]|Assumption 12[At least one of TEENRL and TEDUR must be populated. Both may be populated.],IG v3.4,7.2.2,No Change,- Cited Guidance: Either TEENRL or TEDUR must be present for each Element. Document: SDTMIG v3.4 Item: Specification Section: 7.2.2 - Cited Guidance: At least one of TEENRL and TEDUR must be populated. Both may be populated. Document: SDTMIG v3.4 Item: Assumption 12 Section: 7.2.2,SDTM and SDTMIG Conformance Rules,Record,Error,,not implemented,,Raise an error when TEENRL and TEDUR are both null.,At least one of TEENRL and TEDUR must be populated.,,Value Presence,TEENRL,TEDUR = null,TEENRL ^= null,"
 Include:
 - Trial Design
","Domains:
 Include:
 - TE",TDM,,TE,"all:
 - any:
 - name: TEDUR
 operator: empty
 - name: TEDUR
 operator: not_exists
 - any:
 - name: TEENRL
 operator: empty
 - name: TEENRL
 operator: not_exists",,,- TEDUR - TEENRL,,3.4,Fully Executable,,,,,,Yes,,1.0
CG0295,CDISC.SDTMIG.CG0295,CG0295,1.0,CG0295,1.0,CDISC,SDTMIG,3.4,2.0,Specification,"If the timing of Visits for a trial does not depend on which ARM a subject is in, then ARMCD should be null.",IG v3.4,7.3.1,No Change,"- Cited Guidance: If the timing of Visits for a trial does not depend on which ARM a subject is in, then ARMCD should be null. Document: IG v3.4 Item: Specification Section: 7.3.1",SDTM and SDTMIG Conformance Rules,Dataset,Warning,,not implemented,,Trigger error when ARMCD is populated and the timing and number of Visits for a trial does not depend on which ARM a subject is in,ARMCD is populated and the timing and number of Visits for a trial does not depend on which ARM a subject is in,,Value Presence,ARMCD,The timing and number of Visits for a trial does not depend on which ARM a subject is in,ARMCD = null,"
 Include:
 - Trial Design
","Domains:
 Include:
 - TV",TDM,,TV,"all:
 - name: null
 operator: null
 - name: ARMCD
 operator: non_empty",,,,,3.4,Not Executable,,,,,,Conditional,Dependent on additional appropriate metatdata,1.0
CG0425,CDISC.SDTMIG.CG0425,CG0425,1.0,CG0425,1.0,CDISC,SDTMIG,3.4,2.0,--STRESU,"The unit of measure for the standardized result of the measurement, test, or examination.  Variable(s) Qualified: --STRESC and --STRESN and --STNRLO and --STNRHI and --STREFC and --STREFN and --LLOQ and --ULOQ.",Model v2.0,Findings,Cited guidance updated. Reference to model section and item updated per new style.  ,"- Cited Guidance:  The unit of measure for the standardized result of the measurement, test, or examination. Variable(s) Qualified: --STRESC and --STRESN and --STNRLO and --STNRHI and --STREFC and --STREFN and --LLOQ and --ULOQ.  Document: Model v2.0 Item: --STRESU Section: Findings",SDTM and SDTMIG Conformance Rules,Record,Warning,,not implemented,,Trigger error if --STRESU is null when --STRESC ^= null and units are applicable for the result,--STRESU is null when --STRESC ^= null and units are applicable for the result,,Value Presence,--STRESU,--STRESC ^= null and units are applicable for the result,--STRESU ^= null,"
 Include:
 - Findings
","Domains:
 Include:
 - All",FND,,ALL,"all:
 - name: --STRESC
 operator: not_empty
 - name: null
 operator: null
 - name: --STRESU
 operator: empty
",,,,,3.4,Not Executable,,,,,,Yes,,1.0
CG0431,CDISC.SDTMIG.CG0431,CG0431,2.0,CG0431,1.0,CDISC,SDTMIG,3.4,2.0,,"When the study does not include the data item for an expected variable, however, a null column must still be included in the dataset, and a comment must be included in the Define-XML document to state that the study does not include the data item.",IG v3.4,4.1.5,No Change,"- Cited Guidance: When the study does not include the data item for an expected variable, however, a null column must still be included in the dataset, and a comment must be included in the Define-XML document to state that the study does not include the data item. Document: IG v3.4 Section:  4.1.5",SDTM and SDTMIG Conformance Rules,Value,Warning,,not implemented,,"Raise an error when variable Core Status = Expected and data is collected, but variable is not present","Variable is empty, where variable core status is expected and data is collected.","New version of rule.

GEN removed from Variable Name, replaced with ALL",Value Presence,ALL,Variable Core Status = Expected and data collected,Variable value ^= null,"
 Include:
 - All
","Domains:
 Include:
 - All",ALL,,ALL,"all:
 #Condition: Variable",,,,,3.4,Fully Executable,Final Review,Carlo,Final,,,Conditional,Dependent on additional appropriate metatdata,1.0
CG0435,CDISC.SDTMIG.CG0435,CG0435,1.0,CG0435,1.0,CDISC,SDTMIG,3.4,2.0,DTHDTC|DTHFL,"DTHDTC[The date or date and time of death, represented in a standardized character format.]|DTHFL[An indication that the subject died.]",Model v2.0,Demographics,"Cited guidance updated. Reference to model section and item updated per new style.

Retired for SDTMIGs after v3.4, replaced by rule applying to both DM and DC","- Cited Guidance: DTHDTC[The date or date and time of death, represented in a standardized character format.] DTHFL[An indication that the subject died.] Document: Model v2.0 Item: DTHDTC|DTHFL Section: Demographics",SDTM and SDTMIG Conformance Rules,Record,Error,,not implemented,,Raise an error when DTHDTC is not empty and DTHFL not equal to  Y,"DTHFL is not  Y , when DTHDTC is populated","Retired for SDTMIGs after v3.4, replaced by rule applying to both DM and DC",Value Presence,DTHFL,DTHDTC ^= null,DTHFL = 'Y',"
 Include:
 - Special-Purpose
","Domains:
 Include:
 - DM",SPC,,DM,"all:
 - name: DTHDTC
 operator: non_empty
 - name: DTHFL
 operator: not_equal_to
 value:  Y",,,- DTHDTC - DTHFL,,3.4,Fully Executable,Final Review,Carlo,Final,,,Yes,,1.0
CG0227,CDISC.SDTMIG.CG0227,CG0227,1.0,CG0227,1.0,CDISC,SDTMIG,3.4,2.0,--ENRF,The characterization of the end of an observation relative to the study reference period. The sponsor-defined reference period is a continuous period of time defined by a discrete starting point and a discrete ending point represented by RFSTDTC and RFENDTC in Demographics.,Model v2.0,Timing,Cited guidance updated. Reference to model section and item updated per new style.,- Cited Guidance:  The characterization of the end of an observation relative\ \ to the study reference period.\_ The sponsor-defined reference period is a\ \ continuous period of time defined by a discrete starting point and a discrete\ \ ending point represented by RFSTDTC and RFENDTC in Demographics.  Document: Model 2.0 Item: --ENRF Section: Timing,SDTM and SDTMIG Conformance Rules,Record,Error,,success,invalid,Raise an error when DM.RFENDTC is empty and --ENRF is not empty.,"DM.RFENDTC is empty, but --ENRF is completed.",,Value Presence,--ENRF,DM.RFENDTC = null,--ENRF = null,"
 Include:
 - All
","Domains:
 Exclude:
 - DM",ALL,,ALL,"all:
 - name: RFENDTC
 operator: empty
 - name: --ENRF
 operator: non_empty","- Name: DM
 Keys:
 - USUBJID
",,- --ENRF,,3.4,Fully Executable,,,,,,Yes,,1.0
CG0226,CDISC.SDTMIG.CG0226,CG0226,1.0,CG0226,1.0,CDISC,SDTMIG,3.4,2.0,--STRF,The characterization of the start of an observation relative to the study reference period. The sponsor-defined reference period is a continuous period of time defined by a discrete starting point and a discrete ending point represented by RFSTDTC and RFENDTC in Demographics.,Model v2.0,Timing,Cited guidance updated. Reference to model section and item updated per new style.,- Cited Guidance:  The characterization of the start of an observation relative\ \ to the study reference period.\_ The sponsor-defined reference period is a\ \ continuous period of time defined by a discrete starting point and a discrete\ \ ending point represented by RFSTDTC and RFENDTC in Demographics.  Document: Model 2.0 Item: --STRF Section: Timing,SDTM and SDTMIG Conformance Rules,Record,Error,,success,invalid,Raise an error when RFSTDTC in DM is empty and --STRF is not empty.,RFSTDTC in DM dataset is empty but --STRF is completed.,,Value Presence,--STRF,DM.RFSTDTC = null,--STRF = null,"
 Include:
 - All
","Domains:
 Exclude:
 - DM",ALL,,ALL,"all:
 - name: RFSTDTC
 operator: empty
 - name: --STRF
 operator: non_empty","- Name: DM
 Keys:
 - USUBJID
",,- --STRF,,3.4,Fully Executable,,,,,,Yes,,1.0
CG0225,CDISC.SDTMIG.CG0225,CG0225,1.0,CG0225,1.0,CDISC,SDTMIG,3.4,2.0,,"VISITDY must not be populated for unplanned visits, since VISITDY is, by definition, the planned study day of visit, and since the actual study day of an unplanned visit belongs in a --DY variable.",IG v3.4,4.4.5,No Change,"- Cited Guidance: VISITDY must not be populated for unplanned visits, since VISITDY is, by definition, the planned study day of visit, and since the actual study day of an unplanned visit belongs in a --DY variable. Document: IG v3.4 Section: 4.4.5",SDTM and SDTMIG Conformance Rules,Record,Warning,,success,invalid,Trigger error if VISITYDY is populated when VISITNUM is not in TV.,VISITDY is not null when VISITNUM is not in TV.VISITNUM,,Value Presence,VISITDY,VISITNUM is NOT in TV.VISITNUM,VISITDY = null,"
 Include:
 - All
","Domains:
 Include:
 - All",ALL,,ALL,"all:
 - name: VISITNUM
 operator: is_not_contained_by
 value:  $tv_visitnum 
 - name: VISITDY
 operator: non_empty",,"- domain: TV
 id: $tv_visitnum
 name: VISITNUM
 operator: distinct",- VISITNUM - VISITDY,,3.4,Fully Executable,,,,,,Yes,,1.0
CG0223,CDISC.SDTMIG.CG0223,CG0223,1.0,CG0223,1.0,CDISC,SDTMIG,3.4,2.0,,"The permissible Study Day variables (--DY, --STDY, and --ENDY) describe the relative day of the observation starting with the reference date as Day 1. They are determined by comparing the date portion of the respective date/time variables (--DTC, --STDTC, and --ENDTC) to the date portion of the Subject Reference Start Date (RFSTDTC from the Demographics domain).][All Study Day values are integers. Thus, to calculate Study Day: --DY = (date portion of --DTC) - (date portion of RFSTDTC) + 1 if --DTC is on or after RFSTDTC, --DY = (date portion of --DTC) - (date portion of RFSTDTC) if --DTC precedes RFSTDTC. This algorithm should be used across all domains.",IG v3.4,4.4.4,No Change,"- Cited Guidance:  The permissible Study Day variables (--DY, --STDY, and --ENDY) describe the relative day of the observation starting with the reference date as Day 1. They are determined by comparing the date portion of the respective date/time variables (--DTC, --STDTC, and --ENDTC) to the date portion of the Subject Reference Start Date (RFSTDTC from the Demographics domain). All Study Day values are integers. Thus, to calculate Study Day, --DY = (date portion of --DTC) - (dat",SDTM and SDTMIG Conformance Rules,Record,Warning,,success,invalid,"Trigger error if --ENDTC or DM.RFSTDTC does not contain complete values in their date portion, and --ENDY is not null.",--ENDY is not null when either --ENDTC or DM.RFSTDTC do not contain complete values in their date portion,,Value Presence,--ENDY,--ENDTC or DM.RFSTDTC does not contain complete values in their date portion,--ENDY = null,"
 Include:
 - All
","Domains:
 Exclude:
 - DM",ALL,,ALL,"any:
 - all:
 - name: --ENDTC
 operator: is_incomplete_date
 - name: --ENDY
 operator: non_empty
 - all:
 - name: RFSTDTC
 operator: is_incomplete_date
 - name: --ENDY
 operator: non_empty","- Name: DM
 Keys:
 -  USUBJID 
",,- --ENDTC - RFSTDTC - --ENDY,,3.4,Fully Executable,,,,,,Yes,,1.0
CG0209,CDISC.SDTMIG.CG0209,CG0209,2.0,CG0209,2.0,CDISC,SDTMIG,3.4,2.0,Assumption 8|Assumption 9,"Assumption 8[Since there are, by definition, no gaps between Elements, the value of SEENDTC for one Element will always be the same as the value of SESTDTC for the next Element.]|Assumption 9[Note that SESTDTC is required, although --STDTC is not required in any other subject-level dataset. The purpose of the dataset is to record the Elements a subject actually passed through. We assume that if it is known that a subject passed through a particular Element, then there must be some information on when it started, even if that information is imprecise. Thus, SESTDTC may not be null, although some records may not have all the components (e.g., year, month, day, hour, minute) of the date/time value collected.]",IG v3.4,5.3,No Change,"- Cited Guidance:  Since there are, by definition, no gaps between Elements, the value of SEENDTC for one Element will always be the same as the value of SESTDTC for the next Element.   Document: IG v3.4 Item: Assumption 8 Section:  5.3  - Cited Guidance:   Note that SESTDTC is required, although --STDTC is not required in any other subject-level dataset. The purpose of the dataset is to record the Elements a subject actually passed through. We assume that if it is known that",SDTM and SDTMIG Conformance Rules,Record,Warning,,success,invalid,Trigger error where element is not the last element and SEENDTC is null.,SEENDTC is null when element is not the last.,,Value Presence,SEENDTC,Not last record,SEENDTC ^= null,"
 Include:
 - Special-Purpose
","Domains:
 Include:
 - SE",SPC,,SE,"all:
 - name: SEENDTC
 operator: empty_within_except_last_row
 value: USUBJID",,,,,3.4,Fully Executable,,,,,,Yes,,1.0
CG0208,CDISC.SDTMIG.CG0208,CG0208,3.0,CG0208,3.0,CDISC,SDTMIG,3.4,2.0,Assumption 9,"Note that SESTDTC is required, although --STDTC is not required in any other subject-level dataset. The purpose of the dataset is to record the Elements a subject actually passed through. We assume that if it is known that a subject passed through a particular Element, then there must be some information on when it started, even if that information is imprecise. Thus, SESTDTC may not be null, although some records may not have all the components (e.g., year, month, day, hour, minute) of the date/time value collected.",IG v3.4,5.3,"Condition removed, previously was ""ETCD ^= null"".  ETCD is the topic variable and Required, and therefore cannot be null.","- Cited Guidance: Note that SESTDTC is required, although --STDTC is not required in any other subject-level dataset. The purpose of the dataset is to record the Elements a subject actually passed through. We assume that if it is known that a subject passed through a particular Element, then there must be some information on when it started, even if that information is imprecise. Thus, SESTDTC may not be null, although some records may not have all the components (e.g., year, month",SDTM and SDTMIG Conformance Rules,Record,Warning,,success,invalid,Raise an error when SESTDTC is null.,SESTDTC is required.,,Value Presence,SESTDTC,,SESTDTC ^= null,"
 Include:
 - Special-Purpose
","Domains:
 Include:
 - SE",SPC,,SE,"all:
 - name: SESTDTC
 operator: empty
",,,,,3.4,Fully Executable,,,,,,Yes,,1.0
CG0206,CDISC.SDTMIG.CG0206,CG0206,1.0,CG0206,1.0,CDISC,SDTMIG,3.4,2.0,Assumption 6,"TAETORD will not be populated for subject Elements that are not planned for the Arm to which the subject was assigned. Thus, TAETORD will not be populated for any Element with an ETCD value of “UNPLAN”.",IG v3.4,5.3,Shortened cited guidance to the applicable sentence.,"- Cited Guidance:  TAETORD will not be populated for subject Elements that are not planned for the Arm to which the subject was assigned. Thus, TAETORD will not be populated for any Element with an ETCD value of UNPLAN.  Document: IG v3.4 Item: Assumption 6 Section:  5.3",SDTM and SDTMIG Conformance Rules,Record,Error,,success,invalid,Raise an error when ETCD= UNPLAN  and TAETORD is not null.,TAETORD should be null when ETCD =  UNPLAN .,,Value Presence,TAETORD,ETCD = 'UNPLAN',TAETORD = null,"
 Include:
 - Special-Purpose
","Domains:
 Include:
 - SE",SPC,,SE,"all:
 - name: ETCD
 operator: equal_to
 value: UNPLAN
 - name: TAETORD
 operator: non_empty",,,- ETCD - TAETORD,,3.4,Fully Executable,,,,,,Yes,,1.0
CG0204,CDISC.SDTMIG.CG0204,CG0204,2.0,CG0204,1.0,CDISC,SDTMIG,3.4,2.0,,"A record in a SUPP-- dataset relates back to its parent record(s) via the key identified by the STUDYID, RDOMAIN, USUBJID, and IDVAR/IDVARVAL variables. An exception is SUPP-- dataset records that are related to Demographics (DM) records, where both IDVAR and IDVARVAL will be null because the key variables STUDYID, RDOMAIN, and USUBJID are sufficient to identify the unique parent record in DM (DM has one record per USUBJID).",IG v3.4,8.4.1,No Change,"- Cited Guidance: A record in a SUPP-- dataset relates back to its parent record(s) via the key identified by the STUDYID, RDOMAIN, USUBJID, and IDVAR/IDVARVAL variables. An exception is SUPP-- dataset records that are related to Demographics (DM) records, where both IDVAR and IDVARVAL will be null because the key variables STUDYID, RDOMAIN, and USUBJID are sufficient to identify the unique parent record in DM (DM has one record per USUBJID) Document: SDTMIG v3.4 Section: 8.4.1",SDTM and SDTMIG Conformance Rules,Record,Error,,success,invalid,Raise an error when IDVAR is not empty and IDVARVAL is empty.,IDVAR is not empty but IDVARVAL is empty.,"New version of Rule.

Corrected Class from Special Purpose to Relationship",Value Presence,IDVARVAL,IDVAR ^= null,IDVARVAL ^= null,"
 Include:
 - Relationship
","Domains:
 Include:
 - SUPP--",REL,,SUPP--,"all:
 - name: IDVAR
 operator: non_empty
 - name: IDVARVAL
 operator: empty",,,- IDVAR - IDVARVAL - QNAM,,3.4,Fully Executable,Final Review,Carlo,Final,,,Yes,,1.0
CG0203,CDISC.SDTMIG.CG0203,CG0203,2.0,CG0203,1.0,CDISC,SDTMIG,3.4,2.0,,"A record in a SUPP-- dataset relates back to its parent record(s) via the key identified by the STUDYID, RDOMAIN, USUBJID, and IDVAR/IDVARVAL variables. An exception is SUPP-- dataset records that are related to Demographics (DM) records, where both IDVAR and IDVARVAL will be null because the key variables STUDYID, RDOMAIN, and USUBJID are sufficient to identify the unique parent record in DM (DM has one record per USUBJID).",IG v3.4,8.4.1,"No Change

Rule retired for IGs after v3.4, as SUPP-- replaced by NS--","- Cited Guidance: A record in a SUPP-- dataset relates back to its parent record(s) via the key identified by the STUDYID, RDOMAIN, USUBJID, and IDVAR/IDVARVAL variables. An exception is SUPP-- dataset records that are related to Demographics (DM) records, where both IDVAR and IDVARVAL will be null because the key variables STUDYID, RDOMAIN, and USUBJID are sufficient to identify the unique parent record in DM (DM has one record per USUBJID) Document: SDTMIG v3.4 Section: 8.4.1",SDTM and SDTMIG Conformance Rules,Record,Error,,success,invalid,Raise an error when RDOMAIN ^=  DM  and IDVAR is empty.,RDOMAIN is not  DM  but IDVAR is empty.,"New version of Rule.

Corrected Class from Special Purpose to Relationship

Rule retired for IGs after v3.4, as SUPP-- replaced by NS--",Value Presence,IDVAR,RDOMAIN ^= 'DM',IDVAR ^= null,"
 Include:
 - Relationship
","Domains:
 Include:
 - SUPP--",REL,,SUPP--,"all:
 - name: RDOMAIN
 operator: not_equal_to
 value: DM
 - name: IDVAR
 operator: empty",,,- RDOMAIN - IDVAR - IDVARVAL - QNAM,,3.4,Fully Executable,NSV / Final Review,Carlo,Final,,,Yes,,1.0
CG0183,CDISC.SDTMIG.CG0183,CG0183,2.0,CG0183,1.0,CDISC,SDTMIG,3.4,2.0,Specification,Upper end of reference range for continuous measurements in standardized units. Should be populated only for continuous results.,IG v3.4,6.3.5.6,Section change in SDTMIG v3.4,- Cited Guidance:  Upper end of reference range for continuous measurements in standardized units. Should be populated only for continuous results.   Document: SDTMIG v3.4 Item: Specification Section: 6.3.5.6,SDTM and SDTMIG Conformance Rules,Record,Warning,,success,invalid,Raise an error when LBORRES is not empty and LBSTNRHI is empty.,LBORRES is not empty and LBSTNRHI is empty.,New version of rule: the prior reference of LBORRES in the condition updated to LBSTRESC,Value Presence,LBSTNRHI,LBSTRESC ^= continuous measurement,LBSTNRHI = null,"
 Include:
 - Findings
","Domains:
 Include:
 - LB",FND,,LB,"all:
 - name: LBORRES
 operator: non_empty
 - name: LBSTNRHI
 operator: empty
",,,,,3.4,Partially Executable,Final Review,Carlo,Final,,,Conditional,Dependent on additional non-CDISC metadata,1.0
CG0182,CDISC.SDTMIG.CG0182,CG0182,2.0,CG0182,1.0,CDISC,SDTMIG,3.4,2.0,Specification,Lower end of reference range for continuous measurements for LBSTRESC/LBSTRESN in standardized units. Should be populated only for continuous results.,IG v3.4,6.3.5.6,Section change in SDTMIG v3.4,- Cited Guidance:  Lower end of reference range for continuous measurements for LBSTRESC/LBSTRESN in standardized units. Should be populated only for continuous results.   Document: SDTMIG v3.4 Item: Specification Section: 6.3.5.6,SDTM and SDTMIG Conformance Rules,Record,Warning,,success,invalid,Raise an error when LBORRES is not empty and LBSTNRLO is empty.,LBORRES is not empty and LBSTNRLO is empty.,New version of rule: the prior reference of LBORRES in the condition updated to LBSTRESC,Value Presence,LBSTNRLO,LBSTRESC ^= continuous measurement,LBSTNRLO = null,"
 Include:
 - Findings
","Domains:
 Include:
 - LB",FND,,LB,"all:
 - name: LBORRES
 operator: non_empty
 - name: LBSTNRLO
 operator: empty
",,,,,3.4,Partially Executable,Final Review,Carlo,Final,,,Conditional,Dependent on additional non-CDISC metadata,1.0
CG0181,CDISC.SDTMIG.CG0181,CG0181,1.0,CG0181,1.0,CDISC,SDTMIG,3.4,2.0,Specification,Upper end of reference range for continuous measurement in original units. Should be populated only for continuous results.,IG v3.4,6.3.5.6,Section change in SDTMIG v3.4,- Cited Guidance: Upper end of reference range for continuous measurement in original units. Should be populated only for continuous results. Document: SDTMIG v3.4 Item: Specification Section: 6.3.5.6,SDTM and SDTMIG Conformance Rules,Record,Warning,,success,invalid,Raise an error when LBORRES is not empty and LBORNRHI is empty.,LBORRES is not empty and LBORNRHI is empty.,,Value Presence,LBORNRHI,LBORRES ^= continuous measurement,LBORNRHI = null,"
 Include:
 - Findings
","Domains:
 Include:
 - LB",FND,,LB,"all:
 - name: LBORRES
 operator: non_empty
 - name: LBORNRHI
 operator: empty
",,,,,3.4,Partially Executable,,,,,,Conditional,Dependent on additional non-CDISC metadata,1.0
CG0180,CDISC.SDTMIG.CG0180,CG0180,1.0,CG0180,1.0,CDISC,SDTMIG,3.4,2.0,Specification,Lower end of reference range for continuous measurement in original units. Should be populated only for continuous results.,IG v3.4,6.3.5.6,Section change in SDTMIG v3.4,- Cited Guidance: Lower end of reference range for continuous measurements for LBSTRESC/LBSTRESN in standardized units. Should be populated only for continuous results. Document: SDTMIG v3.4 Item: Specification Section: 6.3.5.6,SDTM and SDTMIG Conformance Rules,Record,Warning,,success,invalid,Raise an error when LBORRES ^= continuous measurement and LBORNRLO is not empty.,LBORRES is non empty and LBORNRLO is non empty.,,Value Presence,LBORNRLO,LBORRES ^= continuous measurement,LBORNRLO = null,"
 Include:
 - Findings
","Domains:
 Include:
 - LB",FND,,LB,"all:
 - name: LBORRES
 operator: non_empty
 - name: LBORNRLO
 operator: non_empty
",,,,,3.4,Partially Executable,,,,,,Conditional,Dependent on additional non-CDISC metadata,1.0
CG0266,CDISC.SDTMIG.CG0266,CG0266,1.0,CG0266,1.0,CDISC,SDTMIG,3.4,2.0,Specification,"The version number of the Reference Terminology, if applicable.",IG v3.4,7.4.2,No Change,"- Cited Guidance: The version number of the Reference Terminology, if applicable. Document: IG v3.4 Item: Specification Section: 7.4.2",SDTM and SDTMIG Conformance Rules,Record,Warning,,success,invalid,Trigger error when TSVCDVER is populated and TSVCDREF is null,TSVCDREF is null when TSVCDVER is populated,,Value Presence,TSVCDREF,TSVCDVER ^= null,TSVCDREF ^= null,"
 Include:
 - Trial Design
","Domains:
 Include:
 - TS",TDM,,TS,"all:
 - name: TSVCDVER
 operator: non_empty
 - name: TSVCDREF
 operator: empty",,,- TSVCDVER - TSVCDREF,,3.4,Fully Executable,,,,,,Yes,,1.0
CG0262,CDISC.SDTMIG.CG0262,CG0262,1.0,CG0262,1.0,CDISC,SDTMIG,3.4,2.0,Specification,Text over 200 characters can be added to additional columns TSVAL1-TSVALn.,IG v3.4,7.4.2,No Change,- Cited Guidance: Text over 200 characters can be added to additional columns TSVAL1-TSVALn. Document: IG v3.4 Item: Specification Section: 7.4.2,SDTM and SDTMIG Conformance Rules,Record,Warning,,success,invalid,Trigger error when TSVAL(n+1) ^= null and TSVALn = null,TSVALn is null when TSVAL(n+1) is populated.,,Value Presence,TSVALn,TSVAL(n+1) ^= null,TSVALn ^= null,"
 Include:
 - Trial Design
","Domains:
 Include:
 - TS",TDM,,TS,"all:
 - operator: additional_columns_empty
 target: --VAL
",,,,,3.4,Fully Executable,,,,,,Yes,,1.0
CG0261,CDISC.SDTMIG.CG0261,CG0261,1.0,CG0261,1.0,CDISC,SDTMIG,3.4,2.0,Specification,Text over 200 characters can be added to additional columns TSVAL1-TSVALn.,IG v3.4,7.4.2,No Change,- Cited Guidance: Text over 200 characters can be added to additional columns TSVAL1-TSVALn. Document: IG v3.4 Item: Specification Section: 7.4.2,SDTM and SDTMIG Conformance Rules,Record,Warning,,success,invalid,Trigger error when TSVAL1 is populated and TSVAL is null,TSVAL is null when TSVAL1 is populated.,,Value Presence,TSVAL,TSVAL1 ^= null,TSVAL ^= null,"
 Include:
 - Trial Design
","Domains:
 Include:
 - TS",TDM,,TS,"all:
 - name: TSVAL1
 operator: non_empty
 - name: TSVAL
 operator: empty",,,,,3.4,Fully Executable,,,,,,Yes,,1.0
CG0166,CDISC.SDTMIG.CG0166,CG0166,1.0,CG0166,1.0,CDISC,SDTMIG,3.4,2.0,Specification,Two-character abbreviation for the domain of the parent record(s). Null for comments collected on a general comments or additional information CRF page.,IG v3.4,5.1,No Change,- Cited Guidance: Two-character abbreviation for the domain of the parent record(s). Null for comments collected on a general comments or additional information CRF page. Document: SDTMIG v3.4 Item: Specification Section:  5.1,SDTM and SDTMIG Conformance Rules,Record,Error,,success,invalid,Verify RDOMAIN is not null when IDVARVAL is not null,RDOMAIN has a missing value when IDVARVAL has a non-missing value,,Value Presence,RDOMAIN,IDVARVAL ^= null,RDOMAIN ^= null,"
 Include:
 - Special-Purpose
","Domains:
 Include:
 - CO",SPC,,CO,"all:
 - name: IDVARVAL
 operator: non_empty
 - name: RDOMAIN
 operator: empty
",,,- RDOMAIN - IDVARVAL,,3.4,Fully Executable,,,,,,Yes,,1.0
CG0164,CDISC.SDTMIG.CG0164,CG0164,1.0,CG0164,1.0,CDISC,SDTMIG,3.4,2.0,Specification,Identifying variable in the parent dataset that identifies the record(s) to which the comment applies. Examples AESEQ or CMGRPID. Used only when individual comments are related to domain records. Null for comments collected on separate CRFs.,IG v3.4,5.1,No Change,- Cited Guidance: Identifying variable in the parent dataset that identifies the record(s) to which the comment applies. Examples AESEQ or CMGRPID. Used only when individual comments are related to domain records.Null for comments collected on separate CRFs. Document: SDTMIG v3.4 Item: Specification Section:  5.1,SDTM and SDTMIG Conformance Rules,Record,Error,,success,invalid,Verify IDVAR is null when RDOMAIN is null,RDOMAIN has a missing value but IDVAR has a non-missing value,,Value Presence,IDVAR,RDOMAIN = null,IDVAR = null,"
 Include:
 - Special-Purpose
","Domains:
 Include:
 - CO",SPC,,CO,"all:
 - name: IDVAR
 operator: non_empty
 - name: RDOMAIN
 operator: empty",,,- RDOMAIN - IDVAR,,3.4,Fully Executable,,,,,,Yes,,1.0
CG0065,CDISC.SDTMIG.CG0065,CG0065,1.0,CG0065,1.0,CDISC,SDTMIG,3.4,2.0,Assumption 3.b.i.,"When DSTERM = ""COMPLETED"", DSDECOD is the term ""COMPLETED"" from the controlled terminology codelist NCOMPLT.",IG v3.4,6.2.3,No change,"- Cited Guidance: When DSTERM =  COMPLETED , DSDECOD is the term  COMPLETED  from the controlled terminology codelist NCOMPLT. Document: IG v3.4 Item: Assumption 3.b.i. Section: 6.2.3",SDTM and SDTMIG Conformance Rules,Record,Error,,success,invalid,Raise an error when DSTERM =  COMPLETED  and DSDECOD not equal to  COMPLETED .,DSDECOD is not equal to  COMPLETED  when DSTERM equals  COMPLETED .,,Value Presence,DSDECOD,DSTERM = 'COMPLETED',DSDECOD = 'COMPLETED',"
 Include:
 - Events
","Domains:
 Include:
 - DS",EVT,,DS,"all:
 - name: DSTERM
 operator: equal_to
 value: COMPLETED
 - name: DSDECOD
 operator: not_equal_to
 value: COMPLETED
",,,- DSTERM - DSDECOD,,3.4,Fully Executable,,,,,,Yes,,1.0
CG0059,CDISC.SDTMIG.CG0059,CG0059,1.0,CG0059,1.0,CDISC,SDTMIG,3.4,2.0,--STRTPT,The characterization of the start of an observation relative to a reference time point. The sponsor-defined reference time point is in --STTPT.,Model v2.0,Timing,Cited guidance updated. Reference to model section and item updated per new style. ,- Cited Guidance: (--STRTPT) The characterization of the start of an observation relative to a reference time point. The sponsor-defined reference time point is in --STTPT. Document: Model v2.0 Section: 2.2.5. Timing,SDTM and SDTMIG Conformance Rules,Record,Error,,success,invalid,Raise an error when --STTPT is completed and --STRTPT is empty,--STTPT is completed and --STRTPT is empty,,Value Presence,--STRTPT,--STTPT ^= null,--STRTPT ^= null,"
 Include:
 - All
","Domains:
 Include:
 - All",ALL,,ALL,"all:
 - name: --STTPT
 operator: non_empty
 - name: --STRTPT
 operator: empty",,,- --STTPT - --STRTPT,,3.4,Fully Executable,,,,,,Yes,,1.0
CG0050,CDISC.SDTMIG.CG0050,CG0050,1.0,CG0050,1.0,CDISC,SDTMIG,3.4,2.0,--PTCD,The preferred term code assigned to the event from MedDRA.,Model v2.0,Events,Cited guidance updated. Reference to model section and item updated per new style.,- Cited Guidance: The preferred term code assigned to the event from MedDRA. Document: Model v2.0 Item: --PTCD Section: Events,SDTM and SDTMIG Conformance Rules,Record,Error,,success,invalid,Raise an error when --DECOD is not populated but --PTCD is populated,--DECOD should be populated when --PTCD is populated,,Value Presence,--PTCD,--PTCD ^= null,--DECOD ^= null,"
 Include:
 - Events
","Domains:
 Include:
 - All",EVT,,ALL,"all:
 - name: --PTCD
 operator: non_empty
 - name: --DECOD
 operator: empty",,,- --TERM - --PTCD - --DECOD,,3.4,Fully Executable,,,,,,Conditional,Dependent on additional non-CDISC metadata,1.0
CG0024,CDISC.SDTMIG.CG0024,CG0024,2.0,CG0024,1.0,CDISC,SDTMIG,3.4,2.0,2.E.1,"--LNKID is a grouping identifier used to identify a record in one domain that is related to records in another domain, often forming a one-to-many relationship.",IG v3.4,4.2.6,No Change,"- Cited Guidance: --LNKID is a grouping identifier used to identify a record in one domain that is related to records in another domain, often forming a one-to-many relationship. Document: IG v3.4 Item: 2.E.1 Section: 4.2.6",SDTM and SDTMIG Conformance Rules,Domain,Warning,,success,invalid,"When --LNKID is present in a domain, it must also be present in another domain",--LNKID is present in only one domain.,Does the use of --LNKID in one domain require it in another?,Value Presence,--LNKID,--LNKID present in a domain,--LNKID present in another domain,"
 Include:
 - All
","Domains:
 Include:
 - All",ALL,,ALL,"all:
 - name: --LNKGRP
 operator: multiple_references
 value: $VALUE_COUNTS",,"- id: $VALUE_COUNTS
 name: --LNKGRP
 operator: variable_value_counts
",,,3.4,Fully Executable,NSV / Final Review,Carlo,Open Issue,,,Yes,,1.0
CG0008,CDISC.SDTMIG.CG0008,CG0008,1.0,CG0008,1.0,CDISC,SDTMIG,3.4,2.0,--ELTM,"The interval of time between a planned time point and a fixed reference point, represented in a standardized character format. The fixed reference point is in --TPTREF.",Model v2.0,Timing,Cited guidance updated. Reference to model section and item updated per new style.,"- Cited Guidance: The interval of time between a planned time point and a fixed reference point, represented in a standardized character format. The fixed reference point is in --TPTREF. Document: SDTM Model v2.0 Item: --ELTM Section: Timing",SDTM and SDTMIG Conformance Rules,Record,Error,,success,invalid,"Raise an error when --TPTREF is empty, but --ELTM is not empty",--TPTREF is empty and --ELTM is not empty,,Value Presence,--ELTM,--TPTREF = null,--ELTM = null,"
 Include:
 - All
","Domains:
 Include:
 - All",ALL,,ALL,"all:
 - name: --TPTREF
 operator: empty
 - name: --ELTM
 operator: non_empty",,,- --TPTREF - --ELTM,,3.4,Fully Executable,,,,,,Yes,,1.0
CG0152,CDISC.SDTMIG.CG0152,CG0152,1.0,CG0152,1.0,CDISC,SDTMIG,3.4,2.0,Specification,"The name of the Element. If ETCD has a value of ""UNPLAN"" then ELEMENT should be null.",IG v3.4,5.3,No Change,- Cited Guidance: The name of the Element. If ETCD has a value of  UNPLAN  then ELEMENT should be null. Document: SDTMIG v3.4 Item: Specification Section: 5.3 Specification,SDTM and SDTMIG Conformance Rules,Record,Error,,success,invalid,Verify that ELEMENT value is blank when ETCD is equal to UNPLAN,ELEMENT variable has a non-null value when ETCD has a value of  UNPLAN,,Value Presence,ELEMENT,ETCD = 'UNPLAN',ELEMENT = null,"
 Include:
 - Special-Purpose
","Domains:
 Include:
 - SE",SPC,,SE,"all:
 - name: ETCD
 operator: equal_to
 value: UNPLAN
 - name: ELEMENT
 operator: non_empty",,,- ETCD - ELEMENT,,3.4,Fully Executable,,,,,,Yes,,1.0
CG0131,CDISC.SDTMIG.CG0131,CG0131,1.0,CG0131,1.0,CDISC,SDTMIG,3.4,2.0,DTHFL,"Should be ""Y"" or null.",Model v2.0,Demographics,"Retired as of 3.4, replaced with rule that accommodates both DM and DC use of DTHFL",- Cited Guidance: Should be  Y  or null Document: Model v2.0 Section: Demographics Item: DTHFL,SDTM and SDTMIG Conformance Rules,Record,Error,,success,invalid,Raise an error when DTHFL ^=  Y  and not null,DTHFL is not  Y  or null,"retire (keep for 3.4, new rule for DM and DC combined) update refs",Value Presence,DTHFL,,"DTHFL in ('Y',null)","
 Include:
 - Special-Purpose
","Domains:
 Include:
 - DM",SPC,,DM,"all:
 - name: DTHFL
 operator: not_equal_to
 value:  Y 
 - name: DTHFL
 operator: non_empty
",,,- DTHFL,,3.4,Fully Executable,Final Review,Carlo,Final,,,Yes,,1.0
CG0108,CDISC.SDTMIG.CG0108,CG0108,2.0,CG0108,2.0,CDISC,SDTMIG,3.4,2.0,--VAMTU,Variable Qualifier of --VAMT.,Model v2.0,Interventions,Cited guidance updated. Reference to model section and item updated per new style.,- Cited Guidance: Variable Qualifier of --VAMT. Document: Model v2.0 Item: --VAMTU Section: Interventions,SDTM and SDTMIG Conformance Rules,Record,Error,,success,invalid,"Raise an error when --TRTV is null, --VAMTU is not null","Value for --VAMTU is populated, when --TRTV is NULL.",,Value Presence,--VAMTU,--TRTV = null,--VAMTU = null,"
 Include:
 - Interventions
","Domains:
 Include:
 - All",INT,,ALL,"all:
 - name: --TRTV
 operator: empty
 - name: --VAMTU
 operator: non_empty",,,- --TRTV - --VAMTU,,3.4,Fully Executable,,,,,,Yes,,1.0
CG0106,CDISC.SDTMIG.CG0106,CG0106,1.0,CG0106,1.0,CDISC,SDTMIG,3.4,2.0,--TRTV|--VAMT,--TRTV[A carrier or inert medium in which a medicinally active agent is administered.]|--VAMT[Amount of the prepared product (treatment plus vehicle) administered.],Model v2.0,Interventions,Cited guidance updated. Reference to model section and item updated per new style.,- Cited Guidance:   --TRTV[A carrier or inert medium in which a medicinally active agent is administered.]| --VAMT[Amount of the prepared product (treatment plus vehicle) administered.]   Document: Model v2.0 Item: --TRTV|--VAMT Section: Interventions,SDTM and SDTMIG Conformance Rules,Record,Error,,success,invalid,"Raise an error when --TRTV is empty, --VAMT is not empty","Value for --VAMT is populated, when --TRTV is NULL.",,Value Presence,--VAMT,--TRTV = null,--VAMT = null,"
 Include:
 - Interventions
","Domains:
 Include:
 - All",INT,,ALL,"all:
 - name: --TRTV
 operator: empty
 - name: --VAMT
 operator: non_empty",,,- --TRTV - --VAMT,,3.4,Fully Executable,,,,,,Yes,,1.0
CG0082,CDISC.SDTMIG.CG0082,CG0082,2.0,CG0082,2.0,CDISC,SDTMIG,3.4,2.0,--BODSYS,Events[--BODSYSCD][Variable Qualifier of BODSYS],Model v2.0,Events,Cited guidance updated. Reference to model section and item updated per new style. Findings removed since BDSYCD not in Findings. ,- Cited Guidance: Variable Qualifier of --BODSYS Document: SDTM v2.0 Item: --BODSYS Section: Events,SDTM and SDTMIG Conformance Rules,Record,Warning,,success,invalid,"Raise an error if --BODSYS is not empty, --BDSYCD is empty",--BODSYS is not empty and --BDSYCD is empty,,Value Presence,--BDSYCD,--BODSYS ^= null,--BDSYCD ^= null,"
 Include:
 - Events
","Domains:
 Include:
 - All",EVT,,ALL,"all:
 - name: --BODSYS
 operator: non_empty
 - name: --BDSYCD
 operator: empty
",,,,,3.4,Fully Executable,,,,,,Yes,,1.0
CG0094,CDISC.SDTMIG.CG0094,CG0094,1.0,CG0094,1.0,CDISC,SDTMIG,3.4,2.0,--REASND,"Events[The explanation for why requested information was not available. Used in conjunction with --STAT when value is ""NOT DONE"".]|Interventions[The explanation for why requested information was not available. Used in conjunction with --STAT when value is ""NOT DONE"".]|Findings[The explanation for why requested information was not available. Used in conjunction with --STAT when value is ""NOT DONE"".]",Model v2.0,Interventions|Events|Findings,Cited guidance updated. Reference to model section and item updated per new style.,- Cited Guidance: The explanation for why requested information was not available. Used in conjunction with --STAT when value is  NOT DONE . Document: Model v2.0 Section: Interventions - Cited Guidance: The explanation for why requested information was not available. Used in conjunction with --STAT when value is  NOT DONE . Document: Model v2.0 Section: Events - Cited Guidance: The explanation for why requested information was not available. Used in conjunction with --STAT when val,SDTM and SDTMIG Conformance Rules,Record,Error,,success,invalid,Raise an error when --REASND is provided and --STAT is not equal to  NOT DONE .,--STAT should be  NOT DONE  when --REASND is provided.,,Value Presence,--STAT,--REASND ^= null,--STAT = 'NOT DONE',"
 Include:
 - All
","Domains:
 Exclude:
 - EX
 - AE
 - DS
 - DV
 - IE",ALL,,"NOT(EX, AE, DS, DV, IE)","all:
 - name: --REASND
 operator: non_empty
 - name: --STAT
 operator: not_equal_to
 value:  NOT DONE 
",,,- --STAT - --REASND,,3.4,Fully Executable,,,,,,Yes,,1.0
CG0569,CDISC.SDTMIG.CG0569,CG0569,1.0,CG0569,1.0,CDISC,SDTMIG,3.4,2.0,--STRESC,Operationally-derived indicator used to identify the last non-missing value prior to RFXSTDTC. Result value is in --STRESC.,Model v2.0,Findings,Cited guidance updated. Reference to model section and item updated per new style.,- Cited Guidance: Operationally-derived indicator used to identify the last non-missing value prior to RFXSTDTC. Result value is in --STRESC. Document: Model 2.0 Item: --STRESC Section: Findings,SDTM and SDTMIG Conformance Rules,Record,Error,,success,invalid,Raise an error when --LOBXFL =  Y  and --STRESC is empty.,"--LOBXFL =  Y , but --STRESC is empty.",,Value Presence,--STRESC,--LOBXFL = 'Y',--STRESC ^= null,"
 Include:
 - Findings
","Domains:
 Include:
 - All",FND,,ALL,"all:
 - name: --LOBXFL
 operator: equal_to
 value:  Y 
 - name: --STRESC
 operator: empty
",,,- --TESTCD - --CAT,,3.4,Fully Executable,,,,,,,,1.0
CG0561,CDISC.SDTMIG.CG0561,CG0561,1.0,CG0561,1.0,CDISC,SDTMIG,3.4,2.0,Specification,"If PEORRES is null, PESTRESC must be null.",IG v3.4,6.3.8,"Section change in SDTMIG v3.4 

Rule retired for IGs after v3.4.","- Cited Guidance: If PEORRES is null, PESTRESC must be null. Document: IG v3.4 Item: Specification Section: 6.3.8",SDTM and SDTMIG Conformance Rules,Record,Error,,success,invalid,Verify that PESTRESC is null when PEORRES is null,PESTRESC value is not missing when PEORRES value is missing,Rule retired for IGs after v3.4.,Value Presence,PESTRESC,PEORRES =  null,PESTRESC = null,"
 Include:
 - Findings
","Domains:
 Include:
 - PE",FND,,PE,"all:
 - name: PEORRES
 operator: empty
 - name: PESTRESC
 operator: non_empty",,,- PEORRES - PESTRESC,,3.4,Fully Executable,Final Review,Carlo,Final,,,,,1.0
CG0553,CDISC.SDTMIG.CG0553,CG0553,2.0,CG0553,2.0,CDISC,SDTMIG,3.4,2.0,--LOBXFL,"Operationally derived indicator used to identify the last non-missing value prior to RFXSTDTC. Result value is in --STRESC. Should be ""Y"" or null.",Model v2.0,The Findings Observation Class,Cited guidance updated. Reference to model section and item updated per new style.,- Cited Guidance: Operationally derived indicator used to identify the last non-missing value prior to RFXSTDTC. Result value is in --STRESC. Should be  Y  or null. Document: Model v2.0 Item: --LOBXFL Section: The Findings Observation Class,SDTM and SDTMIG Conformance Rules,Record,Error,,success,invalid,Verify that --ORRES is not null when --LOBXFL = Y and --DRVFL= null or --DRVFL is not present in the dataset,--ORRES is missing even though --LOBXFL=  Y  and either --DRVFL is not present in dataset or is not equal to  Y,,Value Presence,--ORRES,--LOBXFL = 'Y' and --DRVFL = null,--ORRES ^= null,"
 Include:
 - Findings
","Domains:
 Include:
 - All",FND,,ALL,"all:
 - name: --ORRES
 operator: empty
 - name: --LOBXFL
 operator: equal_to
 value:  Y 
 - any:
 - name: --DRVFL
 operator: not_exists
 - name: --DRVFL
 operator: not_equal_to
 value:  Y",,,- --ORRES - --LOBXFL - --DRVFL,,3.4,Fully Executable,,,,,,,,1.0
CG0550,CDISC.SDTMIG.CG0550,CG0550,1.0,CG0550,1.0,CDISC,SDTMIG,3.4,2.0,--STREFN,"Reference value for continuous or numeric results or findings in standard format or in standard units. --STREFN uses the same units as --STRESN, if applicable.",Model v2.0,Findings,Cited guidance updated. Reference to model section and item updated per new style.,"- Cited Guidance: Reference value for continuous or numeric results or findings in standard format or in standard units. --STREFN uses the same units as --STRESN, if applicable. Document: SDTM v2.0 Item: --STREFN Section: Findings",SDTM and SDTMIG Conformance Rules,Record,Warning,,success,invalid,"When --STREFC is populated, --STREFN should also be populated.",--STREFN is null when --STREFC is populated.,,Value Presence,--STREFN,--STREFC ^= null,--STREFN ^= null,"
 Include:
 - Findings
","Domains:
 Include:
 - All",FND,,ALL,"all:
 - name:  --STREFC 
 operator:  non_empty 
 - name:  --STREFN 
 operator:  empty",,,,,3.4,Fully Executable,,,,,,,,1.0
CG0522,CDISC.SDTMIG.CG0522,CG0522,1.0,CG0522,1.0,CDISC,SDTMIG,3.4,2.0,Assumption 4,"If ACTARMCD is null, then ACTARM must be null and ARMNRS must be populated with the reason ACTARMCD is null. Both ARMCD and ACTARMCD will be null for subjects who were not assigned to treatment.  The same reason will provide the reason that both are null.",IG v3.4,5.2,"Rule retired for IGs after 3.4, replaced by a rule that addresses both DM and DC.","- Cited Guidance:  \ If ACTARMCD is null, then ACTARM must be null and ARMNRS must \ be populated with the reason ACTARMCD is null.\n Both ARMCD and ACTARMCD will be null for subjects who were not assigned to treatment. \n The same reason \ will provide the reason that both are null.\   Document: IG v3.4 Item: Assumption 4 Section:  5.2",SDTM and SDTMIG Conformance Rules,Record,Error,,success,invalid,"Raise an error when ACTARM is not empty, but ACTARMCD is empty","ACTARM is populated, when ACTARMCD is NULL","Rule retired for IGs after 3.4, replaced by a rule that addresses both DM and DC.",Value Presence,ACTARM,ACTARMCD = null,ACTARM = null,"
 Include:
 - Special-Purpose
","Domains:
 Include:
 - DM",SPC,,DM,"all:
 - name: ACTARMCD
 operator: empty
 - name: ACTARM
 operator: non_empty",,,- ACTARMCD - ACTARM,,3.4,Fully Executable,Final Review,Carlo,Final,,,,,1.0
CG0521,CDISC.SDTMIG.CG0521,CG0521,1.0,CG0521,1.0,CDISC,SDTMIG,3.4,2.0,Assumption 4,"If ARMCD is null, then ARM must be null and ARMNRS must be populated with the reason ARMCD is null.",IG v3.4,5.2,"Rule retired for IGs after 3.4, replaced by a rule that addresses both DM and DC.","- Cited Guidance: If ARMCD is null, then ARM must be null and ARMNRS must be populated with the reason ARMCD is null. Document: IG v3.4 Item: Assumption 4 Section:  5.2",SDTM and SDTMIG Conformance Rules,Record,Error,,success,invalid,"Raise an error when ARM is not empty, but ARMCD is empty","ARM is populated, when ARMCD is NULL","Rule retired for IGs after 3.4, replaced by a rule that addresses both DM and DC.",Value Presence,ARM,ARMCD = null,ARM = null,"
 Include:
 - Special-Purpose
","Domains:
 Include:
 - DM",SPC,,DM,"all:
 - name: ARMCD
 operator: empty
 - name: ARM
 operator: non_empty",,,- ARMCD - ARM,,3.4,Fully Executable,Final Review,Carlo,Final,,,,,1.0
CG0520,CDISC.SDTMIG.CG0520,CG0520,1.0,CG0520,1.0,CDISC,SDTMIG,3.4,2.0,Specification|Assumption 4,Specification [A coded reason that arm variables (ARM and ARMCD) and/or actual arm variables (ACTARM and ACTARMCD) are null.]|Assumption 4[ARMNRS may not be populated if both ARMCD and ACTARMCD are populated],IG v3.4,5.2,"Rule retired for IGs after 3.4, replaced by a rule that addresses both DM and DC.",- Cited Guidance:  \ Specification [A coded reason that arm variables (ARM and ARMCD) and/or actual arm variables (ACTARM and ACTARMCD) are null.]\n Assumption \ 4[ARMNRS may not be populated if both ARMCD and ACTARMCD are populated]\   Document: IG v3.4 Item: Specification|Assumption 4 Section:  5.2,SDTM and SDTMIG Conformance Rules,Record,Error,,success,invalid,"Verify the value for ARMNRS, when both ARMCD and ACTARMCD values are populated","Value for ARMNRS is populated, when both ARMCD and ACTARMCD values are populated","Rule retired for IGs after 3.4, replaced by a rule that addresses both DM and DC.",Value Presence,ARMNRS,ARMCD ^=null and ACTARMCD ^=null,ARMNRS = null,"
 Include:
 - Special-Purpose
","Domains:
 Include:
 - DM",SPC,,DM,"all:
 - name: ARMCD
 operator: non_empty
 - name: ACTARMCD
 operator: non_empty
 - name: ARMNRS
 operator: non_empty",,,- ARMCD - ACTARMCD - ARMNRS,,3.4,Fully Executable,Final Review,Carlo,Final,,,,,1.0
CG0519,CDISC.SDTMIG.CG0519,CG0519,1.0,CG0519,1.0,CDISC,SDTMIG,3.4,2.0,Specification,"With the exception of studies which use multi-stage Arm assignments, must be a value of ARM in the Trial Arms Dataset. If the subject was not assigned to an Arm, ARM is null and ARMNRS is populated.",IG v3.4,5.2,"Rule retired for IGs after 3.4, replaced by a rule that addresses both DM and DC.","- Cited Guidance: With the exception of studies which use multi-stage Arm assignments, must be a value of ARM in the Trial Arms Dataset. If the subject was not assigned to an Arm, ARM is null and ARMNRS is populated. Document: IG v3.4 Item: Specification Section:  5.2",SDTM and SDTMIG Conformance Rules,Record,Error,,success,invalid,Verify ARMNRS is not null when ARM is null,ARMNRS is missing when ARM value is missing,"Rule retired for IGs after 3.4, replaced by a rule that addresses both DM and DC.",Value Presence,ARMNRS,ARM = null,ARMNRS^=null,"
 Include:
 - Special-Purpose
","Domains:
 Include:
 - DM",SPC,,DM,"all:
 - name: ARM
 operator: empty
 - name: ARMNRS
 operator: empty",,,- ARM - ARMNRS,,3.4,Fully Executable,Final Review,Carlo,Final,,,,,1.0
CG0517,CDISC.SDTMIG.CG0517,CG0517,1.0,CG0517,1.0,CDISC,SDTMIG,3.4,2.0,Specification,"With the exception of studies which use multi-stage Arm assignments, must be a value of ARMCD in the Trial Arms Dataset.  If the subject was not assigned to an Arm, ARMCD is null and ARMNRS is populated",IG v3.4,5.2,"Rule retired for IGs after 3.4, replaced by a rule that addresses both DM and DC.","- Cited Guidance: With the exception of studies which use multi-stage Arm assignments, must be a value of ARMCD in the Trial Arms Dataset. If the subject was not assigned to an Arm, ARMCD is null and ARMNRS is populated Document: IG v3.4 Item: Specification Section:  5.2",SDTM and SDTMIG Conformance Rules,Record,Error,,success,invalid,Verify ARMNRS is not null when ARMCD is null,ARMNRS value is missing when ARMCD value is missing,"Rule retired for IGs after 3.4, replaced by a rule that addresses both DM and DC.",Value Presence,ARMNRS,ARMCD = null,ARMNRS^=null,"
 Include:
 - Special-Purpose
","Domains:
 Include:
 - DM",SPC,,DM,"all:
 - name: ARMCD
 operator: empty
 - name: ARMNRS
 operator: empty",,,- ARMCD - ARMNRS,,3.4,Fully Executable,Final Review,Carlo,Final,,,,,1.0
CG0515,CDISC.SDTMIG.CG0515,CG0515,1.0,CG0515,1.0,CDISC,SDTMIG,3.4,2.0,Specification,"With the exception of studies which use multi-stage Arm assignments, must be a value of ARM in the Trial Arms Dataset.
If the subject was not assigned to an Arm or followed a course not described by any planned Arm, ACTARM is null and ARMNRS is populated.",IG v3.4,5.2,"Rule retired for IGs after 3.4, replaced by a rule that addresses both DM and DC.","- Cited Guidance: With the exception of studies which use multi-stage Arm assignments, must be a value of ARM in the Trial Arms Dataset. If the subject was not assigned to an Arm or followed a course not described by any planned Arm, ACTARM is null and ARMNRS is populated. Document: IG v3.4 Item: Specification Section:  5.2",SDTM and SDTMIG Conformance Rules,Record,Error,,success,invalid,Raise an error when ACTARM is empty and ARMNRS is not completed.,"ACTARM is empty, but ARMNRS is not completed.","Rule retired for IGs after 3.4, replaced by a rule that addresses both DM and DC.",Value Presence,ARMNRS,ACTARM = null,ARMNRS^=null,"
 Include:
 - Special-Purpose
","Domains:
 Include:
 - DM",SPC,,DM,"all:
 - name: ACTARM
 operator: empty
 - name: ARMNRS
 operator: empty",,,- ACTARM - ARMNRS,,3.4,Fully Executable,Final Review,Carlo,Final,,,,,1.0
CG0513,CDISC.SDTMIG.CG0513,CG0513,1.0,CG0513,1.0,CDISC,SDTMIG,3.4,2.0,Specification,"With the exception of studies which use multi-stage Arm assignments, must be a value of ARMCD in the Trial Arms Dataset.
If the subject was not assigned to an Arm or followed a course not described by any planned Arm, ACTARMCD is null and ARMNRS is populated.",IG v3.4,5.2,"Rule retired for IGs after 3.4, replaced by a rule that addresses both DM and DC.","- Cited Guidance: With the exception of studies which use multi-stage Arm assignments, must be a value of ARMCD in the Trial Arms Dataset. If the subject was not assigned to an Arm or followed a course not described by any planned Arm, ACTARMCD is null and ARMNRS is populated. Document: IG v3.4 Item: Specification Section:  5.2",SDTM and SDTMIG Conformance Rules,Record,Error,,success,invalid,Raise an error when ACTARMCD is empty and ARMNRS is not completed.,"ACTARMCD is empty, but ARMNRS is not completed.","Rule retired for IGs after 3.4, replaced by a rule that addresses both DM and DC.",Value Presence,ARMNRS,ACTARMCD = null,ARMNRS^=null,"
 Include:
 - Special-Purpose
","Domains:
 Include:
 - DM",SPC,,DM,"all:
 - name: ACTARMCD
 operator: empty
 - name: ARMNRS
 operator: empty",,,- ACTARMCD - ARMNRS,,3.4,Fully Executable,Final Review,Carlo,Final,,,,,1.0
CG0372,CDISC.SDTMIG.CG0372,CG0372,1.0,CG0372,1.0,CDISC,SDTMIG,3.4,2.0,,IG v3.4[4.2.1 ][Values of --TESTCD must be limited to 8 characters; and cannot start with a number; nor can they contain characters other than letters; numbers; or underscores],IG v3.4,4.2.1,"Section change in SDTMIG v3.4. Removed model reference from cited guidance for clarity. The original rule may have covered only IETESTCD in the model; however, the IG now covers all of --TESTCD.",- Cited Guidance: Values of --TESTCD must be limited to 8 characters; and cannot start with a number; nor can they contain characters other than letters; numbers; or underscores Document: IG v3.4 Section: 4.2.1,SDTM and SDTMIG Conformance Rules,Record,Error,,success,invalid,"Raise an error when --TESTCD > 8 chars or contains more than only letters, numbers and underscores, or starts with a number.","--TESTCD > 8 chars or contains more than only letters, numbers, underscores, or starts with a number.",,Value Presence,--TESTCD,,"--TESTCD <= 8 chars and contains only letters, numbers, and underscores and can not start with a number","
 Include:
 - Findings
 - Trial Design
","Domains:
 Include:
 - All","FND, TDM",,ALL,"any:
 - name: --TESTCD
 operator: not_matches_regex
 value: ^[A-Z_][A-Z0-9_]{0,7}$
 - name: IETESTCD
 operator: not_matches_regex
 value: ^[A-Z_][A-Z0-9_]{0,7}$",,,- --TESTCD - IETESTCD,,3.4,Fully Executable,,,,,,Yes,,1.0
CG0372,CDISC.SDTMIG.CG0372,CG0372,1.0,CG0372,1.0,CDISC,SDTMIG,3.4,2.0,,IG v3.4[4.2.1 ][Values of --TESTCD must be limited to 8 characters; and cannot start with a number; nor can they contain characters other than letters; numbers; or underscores],IG v3.4,4.2.1,"Section change in SDTMIG v3.4. Removed model reference from cited guidance for clarity. The original rule may have covered only IETESTCD in the model; however, the IG now covers all of --TESTCD.",- Cited Guidance: Values of --TESTCD must be limited to 8 characters; and cannot start with a number; nor can they contain characters other than letters; numbers; or underscores Document: IG v3.4 Section: 4.2.1,SDTM and SDTMIG Conformance Rules,Record,Error,,success,invalid,"Raise an error when --TESTCD > 8 chars or contains more than only letters, numbers and underscores, or starts with a number.","--TESTCD > 8 chars or contains more than only letters, numbers, underscores, or starts with a number.",,Value Presence,--TESTCD,,"--TESTCD <= 8 chars and contains only letters, numbers, and underscores and can not start with a number","
 Include:
 - Findings
 - Trial Design
","Domains:
 Include:
 - All","FND, TDM",,ALL,"any:
 - name: --TESTCD
 operator: not_matches_regex
 value: ^[A-Z_][A-Z0-9_]{0,7}$
 - name: IETESTCD
 operator: not_matches_regex
 value: ^[A-Z_][A-Z0-9_]{0,7}$",,,- --TESTCD - IETESTCD,,3.4,Fully Executable,,,,,,Yes,,1.0
CG0366,CDISC.SDTMIG.CG0366,CG0366,1.0,CG0366,1.0,CDISC,SDTMIG,3.4,2.0,,"Associated Persons (AP) are persons other than study subjects who can be associated with a study, a particular study subject, or a device used in the study.",Model v2.0,Associated Persons,Cited guidance updated. Reference to model section and item updated per new style.,"- Cited Guidance: Associated Persons (AP) are persons other than study subjects who can be associated with a study, a particular study subject, or a device used in the study. Document: Model v2.0 Item:     Section: Associated Persons",SDTM and SDTMIG Conformance Rules,Value,Error,,success,invalid,Verify that RSUBJID is empty when RDEVID is populated,RSUBJID must be missing when RDEVID is populated,,Value Presence,RSUBJID,RDEVID ^= null,RSUBJID = null,"
 Include:
 - All
","Domains:
 Include:
 - AP--
 - APRELSUB",AP,,ALL,"all:
 - name: RDEVID
 operator: non_empty
 - name: RSUBJID
 operator: non_empty",,,,,3.4,Fully Executable,,,,,,Yes,,1.0
CG0365,CDISC.SDTMIG.CG0365,CG0365,1.0,CG0365,1.0,CDISC,SDTMIG,3.4,2.0,,"Associated Persons (AP) are persons other than study subjects who can be associated with a study, a particular study subject, or a device used in the study.",Model v2.0,Associated Persons,Cited guidance updated. Reference to model section and item updated per new style.,"- Cited Guidance: Associated Persons (AP) are persons other than study subjects who can be associated with a study, a particular study subject, or a device used in the study. Document: Model v2.0 Item:     Section: Associated Persons",SDTM and SDTMIG Conformance Rules,Value,Error,,success,invalid,"Verify when RSUBJID is populated, RDEVID is empty.",RDEVID must be empty when RSUBJID is populated,,Value Presence,RDEVID,RSUBJID ^= null,RDEVID = null,"
 Include: 
 - All
","Domains:
 Include:
 - APRELSUB
 - APLB",AP,,ALL,"all:
 - name: RSUBJID
 operator: non_empty
 - name: RDEVID
 operator: non_empty",,,,,3.4,Fully Executable,,,,,,Yes,,1.0
CG0364,CDISC.SDTMIG.CG0364,CG0364,1.0,CG0364,1.0,CDISC,SDTMIG,3.4,2.0,RSUBJID,Identifier used to identify a related subject or pool of subjects. RSUBJID will be populated with either the USUBJID of the related subject or the POOLID of the related pool.,Model v2.0,RELSUB,Cited guidance updated. Reference to model section and item updated per new style.,- Cited Guidance: Identifier used to identify a related subject or pool of subjects. RSUBJID will be populated with either the USUBJID of the related subject or the POOLID of the related pool. Document: Model v2.0 Item: RSUBJID Section: RELSUB,SDTM and SDTMIG Conformance Rules,Value,Error,,success,invalid,Verify when RSUBJID is populated it does not equal POOLID,"When RSUBJID is populated, RUSBJID cannot equal POOLID",,Value Presence,RSUBJID,RSUBJID ^= null,RSUBJID ^= POOLID,"
 Include:
 - Relationship
","Domains:
 Include:
 - RELSUB",SPC,,RELSUB,"all:
 - name: RSUBJID
 operator: non_empty
 - name: RSUBJID
 operator: equal_to
 value: POOLID",,,-  RSUBJID  -  POOLID,,3.4,Fully Executable,,,,,,Yes,,1.0
CG0363,CDISC.SDTMIG.CG0363,CG0363,1.0,CG0363,1.0,CDISC,SDTMIG,3.4,2.0,RSUBJID,Identifier used to identify a related subject or pool of subjects. RSUBJID will be populated with either the USUBJID of the related subject or the POOLID of the related pool.,Model v2.0,RELSUB,Cited guidance updated. Reference to model section and item updated per new style.,- Cited Guidance: Identifier used to identify a related subject or pool of subjects. RSUBJID will be populated with either the USUBJID of the related subject or the POOLID of the related pool. Document: Model v2.0 Item: RSUBJID Section: RELSUB,SDTM and SDTMIG Conformance Rules,Value,Error,,success,invalid,"Verify that when RSUBJID populated , RSUBJID does not equal USUBJID",RSUBJID when populated cannot equal USUBJID,,Value Presence,RSUBJID,RSUBJID ^= null,RSUBJID ^= USUBJID,"
 Include:
 - Relationship
","Domains:
 Include:
 - RELSUB",SPC,,RELSUB,"all:
 - name: RSUBJID
 operator: non_empty
 - name: RSUBJID
 operator: equal_to
 value: USUBJID",,,-  RSUBJID  -  USUBJID,,3.4,Fully Executable,,,,,,Yes,,1.0
CG0362,CDISC.SDTMIG.CG0362,CG0362,1.0,CG0362,1.0,CDISC,SDTMIG,3.4,2.0,USUBJID|POOLID,USUBJID[Either USUBJID or POOILD must be populated.]|POOLID[Either USUBJID or POOLID must be populated.],Model v2.0,RELSUB,Cited guidance updated. Reference to model section and item updated per new style.,- Cited Guidance: Either USUBJID or POOILD must be populated. Document: Model v2.0 Item: USUBJID Section: RELSUB - Cited Guidance:  Either USUBJID or POOILD must be populated.  Document: Model v2.0 Item: POOLID Section: RELSUB,SDTM and SDTMIG Conformance Rules,Variable,Error,,success,invalid,"Verify that when POOLID is populated, USUBJID is not populated",USUBJID must be null when POOLID is populated,,Value Presence,USUBJID,POOLID ^= null,USUBJID = null,"
 Include:
 - Special-Purpose
","Domains:
 Include:
 - RELSUB",SPC,,RELSUB,"all:
 - name: POOLID
 operator: non_empty
 - name: USUBJID
 operator: non_empty",,,-  POOLID  -  USUBJID,,3.4,Fully Executable,,,,,,Yes,,1.0
CG0465,CDISC.SDTMIG.CG0465,CG0465,2.0,CG0465,1.0,CDISC,SDTMIG,3.4,2.0,IDVARVAL,Comments[Value of identifying variable of the parent record(s).]|Supplemental Qualifiers[Value of identifying variable of the parent record(s).],Model v2.0,Comments|Supplemental Qualifiers,"Cited guidance updated. Reference to model section and item updated per new style.

Retired for IG versions after 3.4",- Cited Guidance: Comments[Value of identifying variable of the parent record(s).]|Supplemental Qualifiers[Value of identifying variable of the parent record(s).] Document: Model v2.0 Item: IDVARVAL Section: Comments|Supplemental Qualifiers,SDTM and SDTMIG Conformance Rules,Record,Error,,success,invalid,Raise an error when IDVAR is empty and IDVARVAL is not empty,IDVAR is empty but IDVARVAL is not empty,"New version of Rule.

Corrected Class to include Relationship

Retired for IG versions after 3.4",Value Presence,IDVARVAL,IDVAR = null,IDVARVAL = null,"
 Include:
 - Special-Purpose
","Domains:
 Include:
 - CO
 - SUPP--","SPC, REL",,"CO, SUPP--","all:
 - name: IDVAR
 operator: empty
 - name: IDVARVAL
 operator: non_empty",,,-  IDVAR  -  IDVARVAL,,3.4,Fully Executable,Final Review,Carlo,Final,,,Conditional,Dependent on additional appropriate metatdata,1.0
CG0462,CDISC.SDTMIG.CG0462,CG0462,2.0,CG0462,2.0,CDISC,SDTMIG,3.4,2.0,Assumption 4a|Assumption 4b,"Assumption 4a[For example, if 0 tablets are taken within a timeframe or 0 mL infused at a visit, then ECOCCUR = 'N' is the standard representation of the collected doses not taken, not given, or missed. Dose amount variables (e.g., ECDOSE, ECDOSTXT) must not be set to zero (0) as an alternative method for indicating doses not taken, not given, or missed.]|Assumption 4b[Qualifiers that indicate dose amount (e.g., ECDOSE, ECDOSTXT) may be populated with positive (non-zero) values in cases where the sponsor feels it is necessary and/or appropriate to represent specific dose amounts not taken, not given, or missed.]",IG v3.4,6.1.3.2,Section change in SDTMIG v3.4,"- Cited Guidance: Assumption 4a[For example, if 0 tablets are taken within a timeframe or 0 mL infused at a visit, then ECOCCUR =  N  is the standard representation of the collected doses not taken, not given, or missed. Dose amount variables (e.g., ECDOSE, ECDOSTXT) must not be set to zero (0) as an alternative method for indicating doses not taken, not given, or missed.]|Assumption 4b[Qualifiers that indicate dose amount (e.g., ECDOSE, ECDOSTXT) may be populated with positive (no",SDTM and SDTMIG Conformance Rules,Record,Error,,success,invalid,"Raise an error when ECDOSE is empty, ECOCCUR is not equal to  N , ECSTAT is empty and ECDOSTXT is empty","ECDOSE is empty, ECOCCUR is not equal to  N  and ECSTAT is empty, but ECDOSTXT is also empty.",,Value Presence,ECDOSTXT,ECDOSE = null and ECOCCUR ^= 'N' and ECSTAT = null,ECDOSTXT ^= null,"
 Include:
 - Interventions
","Domains:
 Include:
 - EC",INT,,EC,"all:
 - name: ECDOSE
 operator: empty
 - name: ECOCCUR
 operator: not_equal_to
 value:  N 
 - name: ECSTAT
 operator: empty
 - name: ECDOSTXT
 operator: empty",,,-  ECDOSE  -  ECOCCUR  -  ECSTAT  -  ECDOSTXT,,3.4,Fully Executable,,,,,,Yes,,1.0
CG0434,CDISC.SDTMIG.CG0434,CG0434,1.0,CG0434,1.0,CDISC,SDTMIG,3.4,2.0,AGEU,Variable Qualifier of AGE or AGETXT.,Model v2.0,Demographics,Cited guidance updated. Reference to model section and item updated per new style.,- Cited Guidance: Variable Qualifier of AGE or AGETXT. Document: Model v2.0 Item: AGEU Section: Demographics,SDTM and SDTMIG Conformance Rules,Record,Error,,success,invalid,"Raise an error when both AGETXT and AGE are empty, but AGEU is populated.","AGEU not empty, but AGE empty and AGETXT empty","Retired for SDTMIGs after v3.4, as AGETXT replaced by AGERLO / AGERHI",Value Presence,AGETXT,AGEU ^= null and AGE = null,AGETXT ^= null,"
 Include:
 - Special-Purpose
","Domains:
 Include:
 - DM",SPC,,DM,"all:
 - name: AGEU
 operator: non_empty
 - name: AGE
 operator: empty
 - name: AGETXT
 operator: empty",,,- AGE - AGEU - AGETXT,,3.4,Fully Executable,Final Review,Carlo,Final,,,Yes,,1.0
CG0429,CDISC.SDTMIG.CG0429,CG0429,1.0,CG0429,1.0,CDISC,SDTMIG,3.4,2.0,--SCAT,"Interventions[A further grouping or classification of the category for the topic of the finding, event, or intervention. The category is in --CAT.]|Events[A further grouping or classification of the category for the topic of the finding, event, or intervention. The category is in --CAT.]|Findings[A further grouping or classification of the category for the topic of the finding, event, or intervention. The category is in --CAT.]",Model v2.0,Interventions|Events|Findings,Cited guidance updated. Reference to model section and item updated per new style.,"- Cited Guidance: A further grouping or classification of the category for the topic of the finding, event, or intervention. The category is in --CAT. Document: Model v2.0 Item: --SCAT Section: Interventions - Cited Guidance: A further grouping or classification of the category for the topic of the finding, event, or intervention. The category is in --CAT. Document: Model v2.0 Item: --SCAT Section: Events - Cited Guidance: A further grouping or classification of the categor",SDTM and SDTMIG Conformance Rules,Record,Error,,success,invalid,"Raise an error when --SCAT is not empty, but --CAT is empty.",--CAT should not be null when --SCAT is populated,,Value Presence,--CAT,--SCAT ^= null,--CAT ^= null,"
 Include:
 - All
","Domains:
 Include:
 - All",ALL,,ALL,"all:
 - name: --SCAT
 operator: non_empty
 - name: --CAT
 operator: empty",,,- --CAT - --SCAT,,3.4,Fully Executable,,,,,,Yes,,1.0
CG0429,CDISC.SDTMIG.CG0429,CG0429,1.0,CG0429,1.0,CDISC,SDTMIG,3.4,2.0,--SCAT,"Interventions[A further grouping or classification of the category for the topic of the finding, event, or intervention. The category is in --CAT.]|Events[A further grouping or classification of the category for the topic of the finding, event, or intervention. The category is in --CAT.]|Findings[A further grouping or classification of the category for the topic of the finding, event, or intervention. The category is in --CAT.]",Model v2.0,Interventions|Events|Findings,Cited guidance updated. Reference to model section and item updated per new style.,"- Cited Guidance: A further grouping or classification of the category for the topic of the finding, event, or intervention. The category is in --CAT. Document: Model v2.0 Item: --SCAT Section: Interventions - Cited Guidance: A further grouping or classification of the category for the topic of the finding, event, or intervention. The category is in --CAT. Document: Model v2.0 Item: --SCAT Section: Events - Cited Guidance: A further grouping or classification of the categor",SDTM and SDTMIG Conformance Rules,Record,Error,,success,invalid,"Raise an error when --SCAT is not empty, but --CAT is empty.",--CAT should not be null when --SCAT is populated,,Value Presence,--CAT,--SCAT ^= null,--CAT ^= null,"
 Include:
 - All
","Domains:
 Include:
 - All",ALL,,ALL,"all:
 - name: --SCAT
 operator: non_empty
 - name: --CAT
 operator: empty",,,- --CAT - --SCAT,,3.4,Fully Executable,,,,,,Yes,,1.0
CG0426,CDISC.SDTMIG.CG0426,CG0426,1.0,CG0426,1.0,CDISC,SDTMIG,3.4,2.0,--STRESU,"The unit of measure for the standardized result of the measurement, test, or examination.  Variable(s) Qualified: --STRESC and --STRESN and --STNRLO and --STNRHI and --STREFC and --STREFN and --LLOQ and --ULOQ.",Model v2.0,Findings,Cited guidance updated. Reference to model section and item updated per new style. ,"- Cited Guidance: The unit of measure for the standardized result of the measurement, test, or examination. Variable(s) Qualified, --STRESC and --STRESN and --STNRLO and --STNRHI and --STREFC and --STREFN and --LLOQ and --ULOQ. Document: Model v2.0 Section: Findings",SDTM and SDTMIG Conformance Rules,Record,,,success,invalid,"When --STRESU is populated, --STRESC must also be populated.","Missing value for --STRESC, when --STRESU is provided",,Value Presence,--STRESC,--STRESU ^= null,--STRESC (in standard units) ^= null,"
 Include:
 - Findings
","Domains:
 Include:
 - All",FND,,ALL,"all:
 - name: --STRESU
 operator: non_empty
 - name: --STRESC
 operator: empty
",,,,,3.4,Partially Executable,,,,,,Yes,,1.0
CG0423,CDISC.SDTMIG.CG0423,CG0423,1.0,CG0423,1.0,CDISC,SDTMIG,3.4,2.0,--TRTV|'--VAMT,--TRTV[A carrier or inert medium in which a medicinally active agent is administered.]|--VAMT[Amount of the prepared product (treatment plus vehicle) administered.],Model v2.0,Interventions,Cited guidance updated. Reference to model section and item updated per new style.,- Cited Guidance: A carrier or inert medium in which a medicinally active agent is administered. Document: Model v2.0 Item: --TRTV Section: Interventions - Cited Guidance: Amount of the prepared product (treatment plus vehicle) administered. Document: Model v2.0 Item: --VAMT Section: Interventions,SDTM and SDTMIG Conformance Rules,Record,Error,,success,invalid,"Raise an error when --VAMT is not empty, but --TRTV is empty.","Missing --TRTV value, when --VAMT value is populated.",,Value Presence,--TRTV,--VAMT ^= null,--TRTV ^= null,"
 Include:
 - Interventions
","Domains:
 Include:
 - All",INT,,ALL,"all:
 - name: --VAMT
 operator: non_empty
 - name: --TRTV
 operator: empty",,,- --TRTV - --VAMT,,3.4,Fully Executable,,,,,,Yes,,1.0
CG0422,CDISC.SDTMIG.CG0422,CG0422,1.0,CG0422,1.0,CDISC,SDTMIG,3.4,2.0,--STAT,"4.5.1.1[The --ORRES variable contains the result of the measurement or finding as originally received or collected. --ORRES is an expected variable and should always be populated, except (1) when --STAT = ""NOT DONE"" (because there is no result for such a record) or (2) for derived records.]|Findings[--STAT][Should be null or have a value of ""NOT DONE"".]",IG v3.4|Model v2.0,4.5.1.1|Findings,Updated Cited Guidance. Previous guidance referred only to the LB domain.,"- Cited Guidance: The --ORRES variable contains the result of the measurement or finding as originally received or collected. --ORRES is an expected variable and should always be populated, except (1) when --STAT =  NOT DONE  (because there is no result for such a record) or (2) for derived records. Document: IG v3.4 Item: --STAT Section: 4.5.1.1 - Cited Guidance: Should be null or have a value of  NOT DONE . Document: Model v2.0 Item: --STAT Section: Findings",SDTM and SDTMIG Conformance Rules,Dataset,Error,,success,invalid,Raise an error when both --ORRES and --STAT values are populated,"Value for --STAT is populated, when --ORRES is populated",,Value Presence,--STAT,--ORRES ^= null,--STAT = null,"
 Include:
 - Findings
","Domains:
 Include:
 - All",FND,,ALL,"all:
 - name: --ORRES
 operator: non_empty
 - name: --STAT
 operator: non_empty",,,- --ORRES - --STAT,,3.4,Fully Executable,,,,,,Yes,,1.0
CG0421,CDISC.SDTMIG.CG0421,CG0421,1.0,CG0421,1.0,CDISC,SDTMIG,3.4,2.0,--ENRF,The characterization of the end of an observation relative to the study reference period. The sponsor-defined reference period is a continuous period of time defined by a discrete starting point and a discrete ending point represented by RFSTDTC and RFENDTC in Demographics.,Model v2.0,Timing,Cited guidance updated. Reference to model section and item updated per new style.,- Cited Guidance: The characterization of the end of an observation relative to the study reference period. The sponsor-defined reference period is a continuous period of time defined by a discrete starting point and a discrete ending point represented by RFSTDTC and RFENDTC in Demographics. Document: Model v2.0 Item: --ENRF Section: Timing,SDTM and SDTMIG Conformance Rules,Record,Warning,,success,invalid,"When --OCCUR =  N , --ENRF must not be populated",--ENRF is populated when --OCCUR =  N,,Value Presence,--ENRF,--OCCUR = 'N',--ENRF = null,"
 Include:
 - Interventions
 - Events
","Domains:
 Include:
 - All","INT, EVT",,ALL,"all:
 - name: --OCCUR
 operator: equal_to
 value: N
 - name: --ENRF
 operator: non_empty
",,,- --ENRF,,3.4,Fully Executable,,,,,,Yes,,1.0
CG0419,CDISC.SDTMIG.CG0419,CG0419,2.0,CG0419,1.0,CDISC,SDTMIG,3.4,2.0,,"[8.2.1] Identifies the hierarchical level of the records in the relationship. Values should be either ONE or MANY. Used only when identifying a relationship between datasets (as described in Section 8.3, Relating Datasets).

[8.3.1] Since IDVAR identifies the keys that can be used to merge/join records between the datasets, --SEQ cannot be used because --SEQ only has meaning within a subject within a dataset, not across datasets.",IG v3.4,8.2.1|8.3.1,No Change,"- Cited Guidance: Identifies the hierarchical level of the records in the relationship. Values should be either ONE or MANY. Used only when identifying a relationship between datasets (as described in Section 8.3, Relating Datasets). Document: IG 3.4 Section: 8.2.1 - Cited Guidance: Since IDVAR identifies the keys that can be used to merge/join records between the datasets, --SEQ cannot be used because --SEQ only has meaning within a subject within a dataset, not across datasets.",SDTM and SDTMIG Conformance Rules,Record,Warning,,success,invalid,"When IDVAR is populated with a --SEQ value, RELTYPE must be null.",RELTYPE is populated when IDVAR is populated with a --SEQ value.,"New version of Rule.

Corrected Class from Special Purpose to Relationship",Value Presence,RELTYPE,IDVAR populated with a --SEQ value,RELTYPE = null,"
 Include:
 - Special-Purpose
","Domains:
 Include:
 - RELREC",REL,,RELREC,"all:
 - name: IDVAR
 operator: suffix_matches_regex
 suffix: 3
 value: SEQ
 - name: RELTYPE
 operator: non_empty",,,- IDVAR - RELTYPE,,3.4,Fully Executable,Final Review,Carlo,Final,,,Yes,,1.0
