Rule_Id,Core_Id,Rule_ID,Rule_ID_Version,Rule_Identifier_Id,Rule_Identifier_Rule_Version,Authority_Organization,Standards_Name,Standards_Version,Rule_Identifier_Conformance_Guide_Version,Cited_Item,Cited_Guidance,Cited_Doc,Cited_Section,Release_Notes,Citations,References_Origin,Sensitivity,Severity,verisian_comment,verisian_status,verisian_validity,Description,Outcome_Message,Discussion_Notes,Rule_Type,Variable,Condition,Rule,Scopes_Classes,Scopes_Domains,Class,Subclass,Dataset_or_Domain,Check,Match_Datasets,Operations,Outcome_Output_Variables,Related_Rule(s),Rule_Set,Jira_Executability,Team,Assigned_To,Update_Status,CORE_Programmability_Status,CORE_Programmability_Comments,Historical_Programmable,Historical_Programmable_Flag_Comment,Core_Version
CG0246,CDISC.SDTMIG.CG0246,CG0246,1.0,CG0246,1.0,CDISC,SDTMIG,3.4,2.0,Specification,ETCD (the companion to ELEMENT) is limited to 8 characters,IG v3.4,5.3|7.2.1|7.2.2,Section change in IG 3.4,- Cited Guidance: ETCD (the companion to ELEMENT) is limited to 8 characters Document: IG v3.4 Item: Specification Section:  5.3  - Cited Guidance: ETCD (the companion to ELEMENT) is limited to 8 characters Document: IG v3.4 Item: Specification Section: 7.2.1 - Cited Guidance: ETCD (the companion to ELEMENT) is limited to 8 characters Document: IG v3.4 Item: Specification Section: 7.2.2,SDTM and SDTMIG Conformance Rules,Record,Error,,success,invalid,The length of ETCD should be no greater than 8,ETCD value is greater than 8,,Variable Length,ETCD,,ETCD value length <= 8,"
 Include:
 - Trial Design
 - Special-Purpose
","Domains:
 Include:
 - TA
 - TE
 - SE","TDM, SPC",,"TA, TE, SE","all:
 - name: ETCD
 operator: longer_than
 value: 8
",,,- ETCD,,3.4,Fully Executable,,,,,,Yes,,1.0
CG0309,CDISC.SDTMIG.CG0309,CG0309,1.0,CG0309,1.0,CDISC,SDTMIG,3.4,2.0,,"Each domain dataset is distinguished by a unique, two-character code",IG v3.4,2.2,No Change,"- Cited Guidance: Each domain dataset is distinguished by a unique, two-character code Document: IG v3.4 Section:  2.2",SDTM and SDTMIG Conformance Rules,Domain,Error,,success,invalid,Raise an error when AP-- domain value length is not equal to 4.,AP-- Domain value length is not equal to 4.,,Variable Length,DOMAIN,,DOMAIN value length = 4,"
 Include:
 - All
","Domains:
 Include:
 - All",ALL,,AP--,"all:
 - name: DOMAIN
 operator: starts_with
 value: AP
 - name: DOMAIN
 operator: has_not_equal_length
 value: 4
",,,,,3.4,Fully Executable,,,,,,Yes,,1.0
CG0308,CDISC.SDTMIG.CG0308,CG0308,1.0,CG0308,1.0,CDISC,SDTMIG,3.4,2.0,,"Each domain dataset is distinguished by a unique, two-character code",IG v3.4,2.2,No Change,"- Cited Guidance: Each domain dataset is distinguished by a unique, two-character code Document: IG v3.4 Section:  2.2",SDTM and SDTMIG Conformance Rules,Domain,Error,,success,invalid,Raise an error when DOMAIN value length is not equal 2.,Domain value length is not equal 2.,,Variable Length,DOMAIN,,DOMAIN value length = 2,"
 Exclude:
 - Relationship
","Domains:
 Exclude:
 - AP--",ALL,,"NOT(AP--, RELREC)","all:
 - name: DOMAIN
 operator: longer_than
 value: 2
",,,,,3.4,Fully Executable,,,,,,Yes,,1.0
CG0258,CDISC.SDTMIG.CG0258,CG0258,1.0,CG0258,1.0,CDISC,SDTMIG,3.4,2.0,Specification,The value in TSPARM cannot be longer than 40 characters.,IG v3.4,7.4.2,No Change,- Cited Guidance: The value in TSPARM cannot be longer than 40 characters. Document: IG v3.4 Item: Specification Section: 7.4.2,SDTM and SDTMIG Conformance Rules,Record,Error,,success,invalid,Trigger error when length of TSPARM value is greater than 40,Length of TSPARM is greater than 40,,Variable Length,TSPARM,,TSPARM value length <= 40,"
 Include:
 - Trial Design
","Domains:
 Include:
 - TS",TDM,,TS,"all:
 - name: TSPARM
 operator: longer_than
 value: 40
",,,- TSPARM - TSPARMCD,,3.4,Fully Executable,,,,,,Yes,,1.0
CG0257,CDISC.SDTMIG.CG0257,CG0257,1.0,CG0257,1.0,CDISC,SDTMIG,3.4,2.0,Specification,TSPARMCD (the companion to TSPARM) is limited to 8 characters and does not have special character restrictions.,IG v3.4,7.4.2,No Change,- Cited Guidance: TSPARMCD (the companion to TSPARM) is limited to 8 characters and does not have special character restrictions. Document: IG v3.4 Item: Specification Section: 7.4.2,SDTM and SDTMIG Conformance Rules,Record,Error,,success,invalid,Trigger error when length of TSPARMCD is greater than 8,Length of TSPARMCD is greater than 8,,Variable Length,TSPARMCD,,TSPARMCD value length <= 8,"
 Include:
 - Trial Design
","Domains:
 Include:
 - TS",TDM,,TS,"all:
 - name: TSPARMCD
 operator: longer_than
 value: 8",,,- TSPARM - TSPARMCD,,3.4,Fully Executable,,,,,,Yes,,1.0
CG0149,CDISC.SDTMIG.CG0149,CG0149,1.0,CG0149,1.0,CDISC,SDTMIG,3.4,2.0,SETCD,Maximum of 8 characters.,Model v2.0,Demographics,"Reference to model section and item updated per new style.

Retired for IGs after SDTMIG 3.4",- Cited Guidance: Maximum of 8 characters. Document: Model v2.0 Item: SETCD Section: Demographics,SDTM and SDTMIG Conformance Rules,Record,Error,,success,invalid,Verify that the length of value in SETCD variable is <= 8,SETCD value length is greater than 8,Retired for IGs after SDTMIG 3.4,Variable Length,SETCD,,SETCD value length <= 8,"
 Include:
 - Special-Purpose
 - Trial Design
","Domains:
 Include:
 - DM
 - TX",SPC,,DM,"all:
 - name: SETCD
 operator: matches_regex
 value: ^(.){9,}$",,,- SETCD,,3.4,Fully Executable,MSI / Final Review,Carlo,Final,,,Yes,,1.0
CG0123,CDISC.SDTMIG.CG0123,CG0123,1.0,CG0123,1.0,CDISC,SDTMIG,3.4,2.0,Specification,Code of actual Arm. ACTARMCD is limited to 20 characters. It is not subject to the character restrictions that apply to TESTCD.,IG v3.4,5.2,"Retired as of 3.4, replaced with rule that accommodates both DM and DC use of ACTARMCD",- Cited Guidance: Code of actual Arm. ACTARMCD is limited to 20 characters. It is not subject to the character restrictions that apply to TESTCD. Document: IG v3.4 Item: Specification Section:  5.2,SDTM and SDTMIG Conformance Rules,Record,Error,,success,invalid,Trigger error if length of ACTARMCD is greater than 20 characters,Length of ACTARMCD is greater than 20 characters,"retire, new rule with DC, update refs",Variable Length,ACTARMCD,,ACTARMCD value length <= 20,"
 Include:
 - Special-Purpose
","Domains:
 Include:
 - DM",SPC,,DM,"all:
 - name: ACTARMCD
 operator: longer_than
 value: 20",,,- ACTARMCD,,3.4,Fully Executable,Final Review,Carlo,Final,,,Yes,,1.0
CG0406,CDISC.SDTMIG.CG0406,CG0406,1.0,CG0406,1.0,CDISC,SDTMIG,3.4,2.0,,"Since the --TEST variable is meant to serve as a label for a --TESTCD when a Findings dataset is transposed to a more horizontal format, the length of --TEST is limited to 40 characters (except as noted below) to conform to the limitations of the SAS v5 Transport format currently used for submission datasets....
 IETEST values in IE and TI are exceptions to the above 40-character rule and are limited to 200 characters, since they are not expected to be transformed to column labels.",IG v3.4,4.5.3.1,No Change,"- Cited Guidance: Since the --TEST variable is meant to serve as a label for a --TESTCD when a Findings dataset is transposed to a more horizontal format, the length of --TEST is limited to 40 characters (except as noted below) to conform to the limitations of the SAS v5 Transport format currently used for submission datasets.... IETEST values in IE and TI are exceptions to the above 40-character rule and are limited to 200 characters, since they are not expected to be transformed",SDTM and SDTMIG Conformance Rules,Record,Error,,success,invalid,Raise an error when length of --TEST > 40.,Value length of --TEST > 40.,,Variable Length,--TEST,,--TEST length <= 40,"
 Include:
 - Findings
","Domains:
 Exclude:
 - IE",FND,,NOT(IE),"all:
 - name: --TEST
 operator: longer_than
 value: 40
",,,- --TEST,,3.4,Fully Executable,,,,,,Yes,,1.0
CG0416,CDISC.SDTMIG.CG0416,CG0416,2.0,CG0416,1.0,CDISC,SDTMIG,3.4,2.0,QLABEL,This is the long name or label associated with QNAM. The value in QLABEL cannot be longer than 40 characters. This will often be the column label in the sponsor's original dataset.,Model v2.0,Supplemental Qualifiers,Retired for IGs after 3.4. It is covered by CG0311 and QLABEL isn't applicable in NS--.,- Cited Guidance: This is the long name or label associated with QNAM. The value in QLABEL cannot be longer than 40 characters. This will often be the column label in the sponsor s original dataset. Document: Model v2.0 Item: QLABEL Section: Supplemental Qualifiers,SDTM and SDTMIG Conformance Rules,Record,Error,,success,invalid,Raise an error when QLABEL > 40 chars.,QLABEL > 40 chars.,"New version of Rule.

Corrected Class from Special Purpose to Relationship

Retired for IGs after 3.4. It is covered by CG0311 and QLABEL isn't applicable in NS--.",Variable Length,QLABEL,,QLABEL value length <= 40,"
 Include:
 - Special-Purpose
","Domains:
 Include:
 - SUPP--",REL,,SUPP--,"all:
 - name: QLABEL
 operator: longer_than
 value: 40
",,,- IDVAR - IDVARVAL - QLABEL,,3.4,Fully Executable,Final Review,Carlo,Final,,,Yes,,1.0
