Core-ID,conformance_id,Rule ID,cg_version,Rule Version,Class,Subclass,Domain,Variable,Define-XML Element,Scope Section,Natural Language Rule (Success Criteria),Rule (Success Criteria),Condition (Success),Natural Language Rule (Failure Criteria),Rule (Failure Criteria),Condition (Failure),Rule Section,Condition,Plain Text Rule,Rule,Error Message,Define-XML Rule Type,Define Section,Define Source Type,Define XML Attribute,Displayed Link,Document,Section,Item,Cited Guidance,Guidance Section,Release Notes,Author,Question(s) for FDA,Answer of the FDA,Authoring section,Comments/questions for discussion,Response Lex,impl_description,impl_scope_classes,impl_scope_domains,rule_type,impl_check_operators,impl_match_datasets,impl_operations,impl_error_message,impl_outcome_variables,sensitivity,severity
CORE-000560,AD0001,1,1.3,1,SUBJECT LEVEL ANALYSIS DATASET,,,,,,,,,ADSL dataset does not exist,ADSL dataset does not exist,,,,,,,,,,,,Model v2.1; ADaMIG v1.3,6; 2.3.1,,"Model v2.1, Section 6: ADSL and its related metadata are required in a CDISC-based submission of data from a clinical trial even if no other analysis datasets are submitted.

ADaMIG v1.3, Section 2.3.1: ADSL contains one record per subject, regardless of the type of clinical trial design. The label of the ADSL dataset is ""Subject-Level Analysis Dataset."" In a study, there is only one dataset in the class of ""SUBJECT LEVEL ANALYSIS DATASET"", and its name is ADSL.",,,,,,,,,,,,,,,,,,,
,AD0002,2,1.3,1,ALL,,,,,,,,,A variable is present in ADaM with the same name as a variable present in SDTM but the variables do not have identical labels,Variables do not have identical labels,A variable is present in ADaM with the same name as a variable present in SDTM,,,,,,,,,,,Model v2.1; ADaMIG v1.3,4.1.2; 3.1.1,3,"Model v2.1, Section 4.1.2: Any ADaM variable with the same name as an SDTM variable is required to be a copy of the SDTM variable, and its label, attributes, and values cannot be modified. ADaM adheres to the principle of harmonization known as ""same name, same meaning, and same values.""

ADaMIG v1.3, Section 3.1.1, Item 3: Any variable in an ADaM dataset whose name is the same as an SDTM variable must be a copy of the SDTM variable, and its label, meaning, and values must not be modified. ADaM adheres to a principle of harmonization known as ""same name, same meaning, same values."" However, to optimize file size, it is permissible that the length of the variables differ (e.g., trailing blanks may be removed).",,,,,,,,,,,,,,,,,,,
CDISC.ADaMIG.AD0005,AD0005,5,1.3,1,ALL,,,*FL,,,,,,"A variable with a suffix of FL has a value that is not Y, N or null","A variable has a value that is not Y, N or null",Variable with a suffix of FL ,,,,,,,,,,,ADaMIG v1.3,3.1.4,4; 9,"ADaMIG v1.3, Section 3.1.4, Item 4: For subject-level character population flag variables: N = no (not included in the population), Y = yes (included). Null values are not allowed.

ADaMIG v1.3, Section 3.1.4, Item 9: For character flags with variable names that end in FL and that are not population flags, a scheme of Y/N/null, or Y/null may be specified. As indicated in Tables 3.3.4.3.1 and 3.3.8.1, some common character flags use the scheme Y/null. The choice of Y/N/null vs Y/null is dependent on analysis needs. Y/N/null should be used when N and null values need to be analyzed differently. Y/null can be used when the need is to analyze just the Y values. Corresponding 1/0/null and 1/null schemes apply to numeric flags with variable names that end in FN and which are not population indicators.",,,,,,,,,,,,,,,,,,,
CDISC.ADaMIG.AD0006,AD0006,6,1.3,1,ALL,,,*FN,,,,,,"A variable with a suffix of FL is present and a variable with the same root and a suffix of FN has a value that is not  0, 1 or null","A variable with a suffix of FN has a value that is not  0, 1 or null",Variable with a suffix of FL is present and a variable with the same root and a suffix of FN is present,,,,,,,,,,,ADaMIG v1.3,3.1.4,5; 9,"ADaMIG v1.3, Section 3.1.4, Item 5: For subject-level numeric population flag variables: 0 = no (not included), 1 = yes (included). Null values are not allowed.

ADaMIG v1.3, Section 3.1.4, Item 9: For character flags with variable names that end in FL and that are not population flags, a scheme of Y/N/null, or Y/null may be specified. As indicated in Tables 3.3.4.3.1 and 3.3.8.1, some common character flags use the scheme Y/null. The choice of Y/N/null vs Y/null is dependent on analysis needs. Y/N/null should be used when N and null values need to be analyzed differently. Y/null can be used when the need is to analyze just the Y values. Corresponding 1/0/null and 1/null schemes apply to numeric flags with variable names that end in FN and which are not population indicators.",,,,,,,,,,,,,,,,,,,
CDISC.ADaMIG.AD0007,AD0007,7,1.3,1,ALL,,,*FL,,,,,,A variable with a suffix of FN is present but a variable with the same root and a suffix of FL is not present,A variable is not present that has a suffix of FL and the same root as a variable with a suffix of FN,Variable with a suffix of FN is present,,,,,,,,,,,ADaMIG v1.3,3.1.1,8,"ADaMIG v1.3, Section 3.1.1, Item 8: Variables whose names end in FL are character flag (or indicator) variables with at most two possible non-missing values, Y or N (i.e., yes or no). The name of the corresponding numeric flag (or indicator) variable ends in FN. If the flag is included in an ADaM dataset, the character version (*FL) is required but the corresponding numeric version (*FN) can also be included. If both versions of the flag are included, there must be a one-to-one relationship between the values of the two variables, as described in Section 3.1.4, Flag Variable Conventions.",,,,,,,,,,,,,,,,,,,
CDSIC.ADaMIG.AD0010,AD0010,10,1.3,1,ALL,,,*FN,,,,,,A variable with a suffix of FL is equal to Y and a variable with the same root and a suffix of FN is not equal to 1,A variable with a suffix of FN is not equal to 1,"Variable with a suffix of FL is present and equal to Y, and a variable with the same root and a suffix of FN is present",,,,,,,,,,,ADaMIG v1.3,3.1.4,4; 9,"ADaMIG v1.3, Section 3.1.4, Item 4: For subject-level character population flag variables: N = no (not included in the population), Y = yes (included). Null values are not allowed.

ADaMIG v1.3, Section 3.1.4, Item 9: For character flags with variable names that end in FL and that are not population flags, a scheme of Y/N/null, or Y/null may be specified. As indicated in Tables 3.3.4.3.1 and 3.3.8.1, some common character flags use the scheme Y/null. The choice of Y/N/null vs Y/null is dependent on analysis needs. Y/N/null should be used when N and null values need to be analyzed differently. Y/null can be used when the need is to analyze just the Y values. Corresponding 1/0/null and 1/null schemes apply to numeric flags with variable names that end in FN and which are not population indicators.",,,,,,,,,,,,,,,,,,,
,AD0011,11,1.3,1,ALL,,,*FN,,,,,,A variable with a suffix of FL is equal to N and a variable with the same root and a suffix of FN is not equal to 0,A variable with a suffix of FN is not equal to 0,"Variable with a suffix of FL is present and equal to N, and a variable with the same root and a suffix of FN is present",,,,,,,,,,,ADaMIG v1.3,3.1.4,4; 9,"ADaMIG v1.3, Section 3.1.4, Item 4: For subject-level character population flag variables: N = no (not included in the population), Y = yes (included). Null values are not allowed.

ADaMIG v1.3, Section 3.1.4, Item 9: For character flags with variable names that end in FL and that are not population flags, a scheme of Y/N/null, or Y/null may be specified. As indicated in Tables 3.3.4.3.1 and 3.3.8.1, some common character flags use the scheme Y/null. The choice of Y/N/null vs Y/null is dependent on analysis needs. Y/N/null should be used when N and null values need to be analyzed differently. Y/null can be used when the need is to analyze just the Y values. Corresponding 1/0/null and 1/null schemes apply to numeric flags with variable names that end in FN and which are not population indicators.",,,,,,,,,,,,,,,,,,,
,AD0012,12,1.3,1,ALL,,,*FN,,,,,,A variable with a suffix of FL is equal to null and a variable with the same root and a suffix of FN is not equal to null,A variable with a suffix of FN is not equal to null,"Variable with a suffix of FL is present and equal to null, and a variable with the same root and a suffix of FN is present",,,,,,,,,,,ADaMIG v1.3,3.1.4,9,"ADaMIG v1.3, Section 3.1.4, Item 9: For character flags with variable names that end in FL and that are not population flags, a scheme of Y/N/null, or Y/null may be specified. As indicated in Tables 3.3.4.3.1 and 3.3.8.1, some common character flags use the scheme Y/null. The choice of Y/N/null vs Y/null is dependent on analysis needs. Y/N/null should be used when N and null values need to be analyzed differently. Y/null can be used when the need is to analyze just the Y values. Corresponding 1/0/null and 1/null schemes apply to numeric flags with variable names that end in FN and which are not population indicators.",,,,,,,,,,,,,,,,,,,
CDISC.ADaMIG.AD0013,AD0013,13,1.3,1,ALL,,,ALL,,,,,,The length of a variable name exceeds 8 characters,The length of a variable name exceeds 8 characters,,,,,,,,,,,,Model v2.1; ADaMIG v1.3,4.1.2; 3.1.1,1,"Model v2.1, Section 4.1.2: In developing naming conventions, sponsors should consider the requirements noted in the eCTD guidance document as well as the need to conform to the SAS Transport format requirements (e.g., the total length of the name cannot exceed 8 characters).

ADaMIG v1.3, Section 3.1.1, Item 1: To ensure compliance with SAS Version 5 transport file format and Oracle constraints, all ADaM variable names must be no more than 8 characters in length, start with a letter (not underscore), and be composed only of letters (A-Z), underscore (_), and numerals (0-9). All ADaM variable labels must be no more than 40 characters in length. All ADaM character variables must be no more than 200 characters in length.",,,,,,,,,,,,,,,,,,,
CDISC.ADaMIG.AD0014,AD0014,14,1.3,1,ALL,,,ALL,,,,,,A variable name does not start with a letter (A-Z),A variable name does not start with a letter (A-Z),,,,,,,,,,,,Model v2.1; ADaMIG v1.3,4.1.2; 3.1.1,1,"Model v2.1, Section 4.1.2: In developing naming conventions, sponsors should consider the requirements noted in the eCTD guidance document as well as the need to conform to the SAS Transport format requirements (e.g., the total length of the name cannot exceed 8 characters).

ADaMIG v1.3, Section 3.1.1, Item 1: To ensure compliance with SAS Version 5 transport file format and Oracle constraints, all ADaM variable names must be no more than 8 characters in length, start with a letter (not underscore), and be composed only of letters (A-Z), underscore (_), and numerals (0-9). All ADaM variable labels must be no more than 40 characters in length. All ADaM character variables must be no more than 200 characters in length.",,,,,,,,,,,,,,,,,,,
,AD0015,15,1.3,1,ALL,,,ALL,,,,,,"A variable name contains a character other than letters (A-Z), underscores (_), or numerals (0-9)","A variable name contains a character other than letters (A-Z), underscores (_), or numerals (0-9)",,,,,,,,,,,,Model v2.1; ADaMIG v1.3,4.1.2; 3.1.1,1,"Model v2.1, Section 4.1.2: In developing naming conventions, sponsors should consider the requirements noted in the eCTD guidance document as well as the need to conform to the SAS Transport format requirements (e.g., the total length of the name cannot exceed 8 characters).

ADaMIG v1.3, Section 3.1.1, Item 1: To ensure compliance with SAS Version 5 transport file format and Oracle constraints, all ADaM variable names must be no more than 8 characters in length, start with a letter (not underscore), and be composed only of letters (A-Z), underscore (_), and numerals (0-9). All ADaM variable labels must be no more than 40 characters in length. All ADaM character variables must be no more than 200 characters in length.",,,,,,,,,,,,,,,,,,,
CDISC.ADaMIG.AD0016,AD0016,16,1.3,1,ALL,,,ALL,,,,,,The length of a variable label is greater than 40 characters,The length of a variable label is greater than 40 characters,,,,,,,,,,,,Model v2.1; ADaMIG v1.3,4.1.2; 3.1.1,1,"Model v2.1, Section 4.1.2: In developing naming conventions, sponsors should consider the requirements noted in the eCTD guidance document as well as the need to conform to the SAS Transport format requirements (e.g., the total length of the name cannot exceed 8 characters).

ADaMIG v1.3, Section 3.1.1, Item 1: To ensure compliance with SAS Version 5 transport file format and Oracle constraints, all ADaM variable names must be no more than 8 characters in length, start with a letter (not underscore), and be composed only of letters (A-Z), underscore (_), and numerals (0-9). All ADaM variable labels must be no more than 40 characters in length. All ADaM character variables must be no more than 200 characters in length.",,,,,,,,,,,,,,,,,,,
CDISC.ADaMIG.AD0017,AD0017,17,1.3,1,ALL,,,ALL,,,,,,The length of a character value is greater than 200 characters,The length of a character value is greater than 200 characters,,,,,,,,,,,,Model v2.1; ADaMIG v1.3,4.1.2; 3.1.1,1,"Model v2.1, Section 4.1.2: In developing naming conventions, sponsors should consider the requirements noted in the eCTD guidance document as well as the need to conform to the SAS Transport format requirements (e.g., the total length of the name cannot exceed 8 characters).

ADaMIG v1.3, Section 3.1.1, Item 1: To ensure compliance with SAS Version 5 transport file format and Oracle constraints, all ADaM variable names must be no more than 8 characters in length, start with a letter (not underscore), and be composed only of letters (A-Z), underscore (_), and numerals (0-9). All ADaM variable labels must be no more than 40 characters in length. All ADaM character variables must be no more than 200 characters in length.",,,,,,,,,,,,,,,,,,,
,AD0018,18,1.0,1,ALL,,,ALL,,,,,,"Labels for ADaM variables do not match the standard labels for ADaM variables listed in the implementation guide that cannot be modified (with the exception of 1) variables whose names contain indexes “y”, ""xx"", or “zz”; and (2) variable labels with asterisks (*) and ellipses (...) indicated for sponsor appropriate text)",Variable label does not match the standard label,Variable name matches a standard variable defined in the ADaM-IG,,,,,,,,,,,ADaMIG v1.0,3,,"ADaMIG v1.0, Section 3: In general, the variable labels specified in the tables in Section 3 are required. There are only two exceptions to this rule: (1) descriptive text is allowed at the end of the labels of variables whose names contain indexes ""y"" or ""zz""; and (2) asterisks (*) and ellipses (...) in specified variable labels should be replaced by the sponsor with appropriate text.",,,,,,,,,,,,,,,,,,,
CDISC.ADAMIG.AD0019,AD0019,19,1.3,1,SUBJECT LEVEL ANALYSIS DATASET,,,COMPLFL,,,,,,COMPLFL is present and has a value that is not Y or N,Value is not Y or N,COMPLFL is present,,,,,,,,,,,ADaMIG v1.3,3.2,Table 3.2.3,"ADaMIG v1.3, Section 3.2, Table 3.2.3: Population Indicator(s) have a Codelist / Controlled Term value of ""Y, N"".",,,,,,,,,,,,,,,,,,,
CDISC.ADAMIG.AD0020,AD0020,20,1.3,1,SUBJECT LEVEL ANALYSIS DATASET,,,FASFL,,,,,,FASFL is present and has a value that is not Y or N,Value is not Y or N,FASFL is present,,,,,,,,,,,ADaMIG v1.3,3.2,Table 3.2.3,"ADaMIG v1.3, Section 3.2, Table 3.2.3: Population Indicator(s) have a Codelist / Controlled Term value of ""Y, N"".",,,,,,,,,,,,,,,,,,,
CDISC.ADAMIG.AD0021,AD0021,21,1.3,1,SUBJECT LEVEL ANALYSIS DATASET,,,ITTFL,,,,,,ITTFL is present and has a value that is not Y or N,Value is not Y or N,ITTFL is present,,,,,,,,,,,ADaMIG v1.3,3.2,Table 3.2.3,"ADaMIG v1.3, Section 3.2, Table 3.2.3: Population Indicator(s) have a Codelist / Controlled Term value of ""Y, N"".",,,,,,,,,,,,,,,,,,,
CDISC.ADAMIG.AD0022,AD0022,22,1.3,1,SUBJECT LEVEL ANALYSIS DATASET,,,PPROTFL,,,,,,PPROTFL is present and has a value that is not Y or N,Value is not Y or N,PPROTFL is present,,,,,,,,,,,ADaMIG v1.3,3.2,Table 3.2.3,"ADaMIG v1.3, Section 3.2, Table 3.2.3: Population Indicator(s) have a Codelist / Controlled Term value of ""Y, N"".",,,,,,,,,,,,,,,,,,,
CDISC.ADAMIG.AD0023,AD0023,23,1.3,1,SUBJECT LEVEL ANALYSIS DATASET,,,SAFFL,,,,,,SAFFL is present and has a value that is not Y or N,Value is not Y or N,SAFFL is present,,,,,,,,,,,ADaMIG v1.3,3.2,Table 3.2.3,"ADaMIG v1.3, Section 3.2, Table 3.2.3: Population Indicator(s) have a Codelist / Controlled Term value of ""Y, N"".",,,,,,,,,,,,,,,,,,,
CDISC.ADAMIG.AD0024,AD0024,24,1.3,1,SUBJECT LEVEL ANALYSIS DATASET,,,RANDFL,,,,,,RANDFL is present and has a value that is not Y or N,Value is not Y or N,RANDFL is present,,,,,,,,,,,ADaMIG v1.3,3.2,Table 3.2.3,"ADaMIG v1.3, Section 3.2, Table 3.2.3: Population Indicator(s) have a Codelist / Controlled Term value of ""Y, N"".",,,,,,,,,,,,,,,,,,,
CDISC.ADAMIG.AD0025,AD0025,25,1.3,1,SUBJECT LEVEL ANALYSIS DATASET,,,ENRLFL,,,,,,ENRLFL is present and has a value that is not Y or N,Value is not Y or N,ENRLFL is present,,,,,,,,,,,ADaMIG v1.3,3.2,Table 3.2.3,"ADaMIG v1.3, Section 3.2, Table 3.2.3: Population Indicator(s) have a Codelist / Controlled Term value of ""Y, N"".",,,,,,,,,,,,,,,,,,,
CDISC.ADAMIG.AD0026,AD0026,26,1.3,1,SUBJECT LEVEL ANALYSIS DATASET,,,COMPLFN,,,,,,COMPLFN is present and has a value that is not 1 or 0,Value is not 1 or 0,COMPLFN is present,,,,,,,,,,,ADaMIG v1.3,3.2,Table 3.2.3,"ADaMIG v1.3, Section 3.2, Table 3.2.3: The values of subject-level population flags cannot be blank. If a flag is used, the corresponding numeric version (*FN, where 0=No and 1=Yes) of the population flag can also be included.",,,,,,,,,,,,,,,,,,,
CDISC.ADAMIG.AD0027,AD0027,27,1.3,1,SUBJECT LEVEL ANALYSIS DATASET,,,FASFN,,,,,,FASFN is present and has a value that is not 1 or 0,Value is not 1 or 0,FASFN is present,,,,,,,,,,,ADaMIG v1.3,3.2,Table 3.2.3,"ADaMIG v1.3, Section 3.2, Table 3.2.3: The values of subject-level population flags cannot be blank. If a flag is used, the corresponding numeric version (*FN, where 0=No and 1=Yes) of the population flag can also be included.",,,,,,,,,,,,,,,,,,,
CDISC.ADAMIG.AD0028,AD0028,28,1.3,1,SUBJECT LEVEL ANALYSIS DATASET,,,ITTFN,,,,,,ITTFN is present and has a value that is not 1 or 0,Value is not 1 or 0,ITTFN is present,,,,,,,,,,,ADaMIG v1.3,3.2,Table 3.2.3,"ADaMIG v1.3, Section 3.2, Table 3.2.3: The values of subject-level population flags cannot be blank. If a flag is used, the corresponding numeric version (*FN, where 0=No and 1=Yes) of the population flag can also be included.",,,,,,,,,,,,,,,,,,,
CDISC.ADAMIG.AD0029,AD0029,29,1.3,1,SUBJECT LEVEL ANALYSIS DATASET,,,PPROTFN,,,,,,PPROTFN is present and has a value that is not 1 or 0,Value is not 1 or 0,PPROTFN is present,,,,,,,,,,,ADaMIG v1.3,3.2,Table 3.2.3,"ADaMIG v1.3, Section 3.2, Table 3.2.3: The values of subject-level population flags cannot be blank. If a flag is used, the corresponding numeric version (*FN, where 0=No and 1=Yes) of the population flag can also be included.",,,,,,,,,,,,,,,,,,,
CDISC.ADAMIG.AD0030,AD0030,30,1.3,1,SUBJECT LEVEL ANALYSIS DATASET,,,SAFFN,,,,,,SAFFN is present and has a value that is not 1 or 0,Value is not 1 or 0,SAFFN is present,,,,,,,,,,,ADaMIG v1.3,3.2,Table 3.2.3,"ADaMIG v1.3, Section 3.2, Table 3.2.3: The values of subject-level population flags cannot be blank. If a flag is used, the corresponding numeric version (*FN, where 0=No and 1=Yes) of the population flag can also be included.",,,,,,,,,,,,,,,,,,,
CDISC.ADAMIG.AD0031,AD0031,31,1.3,1,SUBJECT LEVEL ANALYSIS DATASET,,,RANDFN,,,,,,RANDFN is present and has a value that is not 1 or 0,Value is not 1 or 0,RANDFN is present,,,,,,,,,,,ADaMIG v1.3,3.2,Table 3.2.3,"ADaMIG v1.3, Section 3.2, Table 3.2.3: The values of subject-level population flags cannot be blank. If a flag is used, the corresponding numeric version (*FN, where 0=No and 1=Yes) of the population flag can also be included.",,,,,,,,,,,,,,,,,,,
CDISC.ADAMIG.AD0032,AD0032,32,1.3,1,SUBJECT LEVEL ANALYSIS DATASET,,,ENRLFN,,,,,,ENRLFN is present and has a value that is not 1 or 0,Value is not 1 or 0,ENRLFN is present,,,,,,,,,,,ADaMIG v1.3,3.2,Table 3.2.3,"ADaMIG v1.3, Section 3.2, Table 3.2.3: The values of subject-level population flags cannot be blank. If a flag is used, the corresponding numeric version (*FN, where 0=No and 1=Yes) of the population flag can also be included.",,,,,,,,,,,,,,,,,,,
,AD0033,33,1.1,1,BASIC DATA STRUCTURE,,,*RFL,,,,,,A variable with a suffix of RFL has a value that is not Y or null,Value is not Y or null,Variable with a suffix of RFL is present,,,,,,,,,,,ADaMIG v1.1,3.1.4,6,"ADaMIG v1.1, Section 3.1.4, Item 6: For parameter-level and record-level character population flag variables: Y = yes (included). Null values are allowed. Note that the controlled terminology is not the same for these population flag variables as for subject-level population flag variables. Depending on how validation checks are written, this difference could cause an issue for a producer-defined subject-level flag variable with a name that ends in ""RFL"" or ""PFL"" if it is copied into a BDS dataset.",,,,,,,,,,,,,,,,,,,
,AD0034,34,1.1,1,BASIC DATA STRUCTURE,,,*PFL,,,,,,A variable with a suffix of PFL has a value that is not Y or null,Value is not Y or null,Variable with a suffix of PFL is present,,,,,,,,,,,ADaMIG v1.1,3.1.4,6,"ADaMIG v1.1, Section 3.1.4, Item 6: For parameter-level and record-level character population flag variables: Y = yes (included). Null values are allowed. Note that the controlled terminology is not the same for these population flag variables as for subject-level population flag variables. Depending on how validation checks are written, this difference could cause an issue for a producer-defined subject-level flag variable with a name that ends in ""RFL"" or ""PFL"" if it is copied into a BDS dataset.",,,,,,,,,,,,,,,,,,,
,AD0035,35,1.1,1,BASIC DATA STRUCTURE,,,*RFN,,,,,,A variable with a suffix of RFN has a value that is not 1 or null,Value is not 1 or null,Variable with a suffix of RFN is present,,,,,,,,,,,ADaMIG v1.1,3.1.4,7,"ADaMIG v1.1, Section 3.1.4, Item 7: For parameter-level and record-level numeric population flag variables: 1 = yes (included). Null values are allowed. Depending on how validation checks are written, this difference could cause an issue for a producer-defined subject-level flag variable with a name that ends in ""RFN"" or ""PFN"" if it is copied into a BDS dataset.",,,,,,,,,,,,,,,,,,,
,AD0036,36,1.1,1,BASIC DATA STRUCTURE,,,*PFN,,,,,,A variable with a suffix of PFN has a value that is not 1 or null,Value is not 1 or null,Variable with a suffix of PFN is present,,,,,,,,,,,ADaMIG v1.1,3.1.4,7,"ADaMIG v1.1, Section 3.1.4, Item 7: For parameter-level and record-level numeric population flag variables: 1 = yes (included). Null values are allowed. Depending on how validation checks are written, this difference could cause an issue for a producer-defined subject-level flag variable with a name that ends in ""RFN"" or ""PFN"" if it is copied into a BDS dataset.",,,,,,,,,,,,,,,,,,,
,AD0037,37,1.0,1,ALL,,,,,,,,,There is more than one value of a variable which has a suffix of GRyN for a given value of a variable with the same root name and suffix of GRy,There is more than one value of a variable which has a suffix of GRyN for a given value of a variable with the same root name and suffix of GRy,,,,,,,,,,,,ADaMIG v1.0,3,10 (General Variable Naming Conventions),"ADaMIG v1.0, Section 3, Item 10 (General Variable Naming Conventions): If any combining of the SDTM character categories is done, the name of the derived ADaM character grouping variable should end in GRy and the name of its numeric equivalent should end in GRyN where y is an integer from 1-9 representing a grouping scheme. For example, if a character analysis variable is created to contain values of Caucasian and Non-Caucasian from the SDTM RACE variable that has 5 categories, then it should be named RACEGRy and its numeric equivalent should be named RACEGRyN (e.g., RACEGR1, RACEGR1N). Truncation of the original variable name may be necessary when appending suffix fragments GRy, or GRyN.

The ADaM Team acknowledges that this cited guidance does not adequately support the creation of a conformance rule; however, we recognize the intent of character and numeric variable pairs and the one-to-one relationships that they must have.",,,,,,,,,,,,,,,,,,,
,AD0038,38,1.0,1,ALL,,,,,,,,,There is more than one value of a variable which has a suffix of GRy for a given value of a variable with the same root name and suffix of GRyN,There is more than one value of a variable which has a suffix of GRy for a given value of a variable with the same root name and suffix of GRyN,,,,,,,,,,,,ADaMIG v1.0,3,10 (General Variable Naming Conventions),"ADaMIG v1.0, Section 3, Item 10 (General Variable Naming Conventions): If any combining of the SDTM character categories is done, the name of the derived ADaM character grouping variable should end in GRy and the name of its numeric equivalent should end in GRyN where y is an integer from 1-9 representing a grouping scheme. For example, if a character analysis variable is created to contain values of Caucasian and Non-Caucasian from the SDTM RACE variable that has 5 categories, then it should be named RACEGRy and its numeric equivalent should be named RACEGRyN (e.g., RACEGR1, RACEGR1N). Truncation of the original variable name may be necessary when appending suffix fragments GRy, or GRyN.

The ADaM Team acknowledges that this cited guidance does not adequately support the creation of a conformance rule; however, we recognize the intent of character and numeric variable pairs and the one-to-one relationships that they must have.",,,,,,,,,,,,,,,,,,,
,AD0039,39,1.3,1,ALL,,,*DTF,,,,,,A variable with a suffix of DTF has a value that is not within Controlled Terminology for DATEFL,Value that is not within Controlled Terminology for DATEFL,Variable with a suffix of DTF is present,,,,,,,,,,,ADaMIG v1.3,3.1.3,1,"ADaMIG v1.3, Section 3.1.3, Item 1: As described in Table 3.1.5.1, variables whose names end in DTF are date imputation flags. *DTF variables represent the highest level of imputation of the *DT variable based on the source SDTM dataset DTC variable. *DTF = Y if the year is imputed. *DTF = M if year is present and month is imputed. *DTF = D if only day is imputed. *DTF = null if *DT equals the SDTM dataset DTC variable date part equivalent. If a date was imputed, *DTF must be populated and is required. Both *DTF and *TMF may be needed to describe the level of imputation in *DTM if imputation was done. Note that the list of examples in Table 3.1.3.1 is not exhaustive.",,,,,,,,,,,,,,,,,,,
,AD0040,40,1.3,1,ALL,,,*TMF,,,,,,A variable with a suffix of TMF has a value that is not within Controlled Terminology for TIMEFL,Value that is not within Controlled Terminology for TIMEFL,Variable with a suffix of TMF,,,,,,,,,,,ADaMIG v1.3,3.1.3,2,"ADaMIG v1.3, Section 3.1.3, Item 2: As described in Table 3.1.5.1, variables whose names end in TMF are time imputation flags. *TMF variables represent the level of imputation of the *TM (and *DTM) variable based on the source SDTM dataset DTC variable. *TMF = H if the entire time is imputed. *TMF = M if minutes and seconds are imputed. *TMF = S if only seconds are imputed. *TMF = null if *TM equals the SDTM DTC variable time part equivalent. For a given SDTM DTC variable, if only hours and minutes are ever collected, and seconds are imputed in *DTM as 00, then it is not necessary to set *TMF to ""S"". However if seconds are generally collected but are missing in a given value of the DTC variable and imputed as 00, or if a collected value of seconds is changed in the creation of *DTM, then *TMF should be set to ""S"". If a time was imputed *TMF must be populated and is required. Both *DTF and *TMF may be needed to describe the level of imputation in *DTM if imputation was done.",,,,,,,,,,,,,,,,,,,
CDISC.ADAMIG.AD0041,AD0041,41,1.3,1,ALL,,,*DT,,,,,,A numeric variable with a suffix of DT does not have a date format,Variable does not have a date format,Numeric variable with a suffix of DT,,,,,,,,,,,ADaMIG v1.3,3.1.2,1; 2,"ADaMIG v1.3, Section 3.1.2, Item 1: Numeric date, time, and datetime variables should be formatted, so as to be human-readable with no loss of precision.

ADaMIG v1.3, Section 3.1.2, Item 2: Variables whose names end in DT are numeric dates.",,,,,,,,,,,,,,,,,,,
,AD0042,42,1.3,1,ALL,,,*TM,,,,,,"A numeric variable with a suffix of TM does not have a time format, excluding ARELTM and variables with a suffix of DTM",Variable does not have a time format,"Numeric variable with a suffix of TM, excluding ARELTM and variables with a suffix of DTM",,,,,,,,,,,ADaMIG v1.3,3.1.2,1; 4,"ADaMIG v1.3, Section 3.1.2, Item 1: Numeric date, time, and datetime variables should be formatted, so as to be human-readable with no loss of precision.

ADaMIG v1.3, Section 3.1.2, Item 4: Variables whose names end in TM are numeric times.",,,,,,,,,,,,,,,,,,,
,AD0043,43,1.3,1,ALL,,,*DTM,,,,,,A numeric variable with a suffix of DTM does not have a datetime format,Variable does not have a datetime format,Numeric variable with a suffix of DTM,,,,,,,,,,,ADaMIG v1.3,3.1.2,1; 3,"ADaMIG v1.3, Section 3.1.2, Item 1: Numeric dates, times and datetimes should be formatted, so as to be human-readable with no loss of precision.

ADaMIG v1.3, Section 3.1.2, Item 3: Variables whose names end in DTM are numeric datetimes.",,,,,,,,,,,,,,,,,,,
,AD0044,44,1.3,1,ALL,,,*TM; *DTM,,,,,,A variable with a suffix of TM and a variable with a suffix of DTM with the same root name have different time values,Time values are different,Variable with a suffix of TM and a variable with a suffix of DTM with the same root name,,,,,,,,,,,ADaMIG v1.3,3.1.2,5,"ADaMIG v1.3, Section 3.1.2, Item 5: If a *DTM and associated *TM variable exist, then the *TM value must match the time part of the *DTM value when the *DTM variable is populated. If a *DTM and associated *DT variable exist, then the *DT value must match the date part of the *DTM value when the *DTM variable is populated.",,,,,,,,,,,,,,,,,,,
,AD0045,45,1.3,1,ALL,,,*DT; *DTM,,,,,,A variable with a suffix of DT and a variable with a suffix of DTM with the same root name have different date values,Date values are different,Variable with a suffix of DT and a variable with a suffix of DTM with the same root name,,,,,,,,,,,ADaMIG v1.3,3.1.2,5,"ADaMIG v1.3, Section 3.1.2, Item 5: If a *DTM and associated *TM variable exist, then the *TM value must match the time part of the *DTM value when the *DTM variable is populated. If a *DTM and associated *DT variable exist, then the *DT value must match the date part of the *DTM value when the *DTM variable is populated.",,,,,,,,,,,,,,,,,,,
CDISC.ADAMIG.AD0046,AD0046,46,1.3,1,ALL,,,*DY,,,,,,A variable with a suffix of DY has a value of zero,Variable has a value of zero,Variable with a suffix of DY,,,,,,,,,,,ADaMIG v1.3,3.1.2,8,"ADaMIG v1.3, Section 3.1.2, Item 8: Variables whose names end in DY are relative day variables. In ADaM as in the SDTM, there is no day 0. If there is a need to create a relative day variable that includes day 0, then its name must not end in DY.",,,,,,,,,,,,,,,,,,,
CDISC.ADAMIG.AD0047,AD0047,47,1.3,1,SUBJECT LEVEL ANALYSIS DATASET,,,,,,,,,SITEID is not present within ADSL,SITEID is not present,,,,,,,,,,,,ADaMIG v1.3,3.2,Table 3.2.1,"ADaMIG v1.3, Section 3.2, Table 3.2.1: SITEID has Core=Req.",,,,,,,,,,,,,,,,,,,
,AD0048,48,1.3,1,SUBJECT LEVEL ANALYSIS DATASET,,,,,,,,,A variable with a suffix of FL is not present in ADSL,*FL is not present,,,,,,,,,,,,ADaMIG v1.3,3.2,Table 3.2.3,"ADaMIG v1.3, Section 3.2, Table 3.2.3: Per the CDISC Notes for ADSL Population Indicator Variables: A minimum of one subject-level population flag variable is required in ADSL.",,,,,,,,,,,,,,,,,,,
CDISC.ADaMIG.AD0049,AD0049,49,1.3,1,SUBJECT LEVEL ANALYSIS DATASET,,,,,,,,,AGE is not present within ADSL,AGE is not present,,,,,,,,,,,,ADaMIG v1.3,3.2,Table 3.2.2,"ADaMIG v1.3, Section 3.2, Table 3.2.2: AGE has Core=Req.",,,,,,,,,,,,,,,,,,,
CDISC.ADaMIG.AD050,AD0050,50,1.3,1,SUBJECT LEVEL ANALYSIS DATASET,,,,,,,,,AGEU is not present within ADSL,AGEU is not present,,,,,,,,,,,,ADaMIG v1.3,3.2,Table 3.2.2,"ADaMIG v1.3, Section 3.2, Table 3.2.2: AGEU has Core=Req.",,,,,,,,,,,,,,,,,,,
CDISC.ADaMIG.AD051,AD0051,51,1.3,1,SUBJECT LEVEL ANALYSIS DATASET,,,,,,,,,SEX is not present within ADSL,SEX is not present,,,,,,,,,,,,ADaMIG v1.3,3.2,Table 3.2.2,"ADaMIG v1.3, Section 3.2, Table 3.2.2: SEX has Core=Req.",,,,,,,,,,,,,,,,,,,
CDISC.ADaMIG.AD052,AD0052,52,1.3,1,SUBJECT LEVEL ANALYSIS DATASET,,,,,,,,,RACE is not present within ADSL,RACE is not present,,,,,,,,,,,,ADaMIG v1.3,3.2,Table 3.2.2,"ADaMIG v1.3, Section 3.2, Table 3.2.2: RACE has Core=Req.",,,,,,,,,,,,,,,,,,,
CDISC.ADAMIG.AD0053,AD0053,53,1.3,1,ALL,,,USUBJID,,,,,,The value of USUBJID is not present in SDTM.DM,The value is not present in SDTM.DM,,,,,,,,,,,,ADaMIG v1.3,3.1.1,3,"ADaMIG v1.3, Section 3.1.1, Item 3: Any variable in an ADaM dataset whose name is the same as an SDTM variable must be a copy of the SDTM variable, and its label, meaning, and values must not be modified. ADaM adheres to a principle of harmonization known as ""same name, same meaning, same values.""",,,,,,,,,,,,,,,,,,,
CDISC.ADaMIG.AD0054,AD0054,54,1.3,1,SUBJECT LEVEL ANALYSIS DATASET,,,USUBJID,,,,,,Within ADSL there is more than one record for a unique value of USUBJID,There is more than one record for a unique value of USUBJID,,,,,,,,,,,,ADaMIG v1.3,1.3; 2.3.1; 3.2,,"ADaMIG v1.3, Section 1.3: The ADSL dataset contains one record per subject.

ADaMIG v1.3, Section 2.3.1: ADSL contains one record per subject, regardless of the type of clinical trial design.

ADaMIG v1.3, Section 3.2: The structure of ADSL is one record per subject, regardless of the type of clinical trial design.",,,,,,,,,,,,,,,,,,,
CDISC.ADaMIG.AD055,AD0055,55,1.3,1,SUBJECT LEVEL ANALYSIS DATASET,,,,,,,,,SUBJID is not present within ADSL,SUBJID is not present,,,,,,,,,,,,ADaMIG v1.3,3.2,Table 3.2.1,"ADaMIG v1.3, Section 3.2, Table 3.2.1: SUBJID has Core=Req.",,,,,,,,,,,,,,,,,,,
,AD0058,58,1.3,1,ALL,,,*DT,,,,,,A variable with a suffix of DT is not a numeric variable,A variable is not a numeric variable,,,,,,,,,,,,ADaMIG v1.3,3.1.2,2,"ADaMIG v1.3, Section 3.1.2, Item 2: Variables whose names end in DT are numeric dates",,,,,,,,,,,,,,,,,,,
,AD0059,59,1.0,1,ALL,,,*TM,,,,,,A variable with a suffix of TM is not a numeric variable,A variable is not a numeric variable,,,,,,,,,,,,ADaMIG v1.0,3,4 (General Timing Variable Conventions),"ADaMIG v1.0, Section 3, Item 4 (General Timing Variable Conventions): Variables whose names end in TM are numeric times",,,,,,,,,,,,,,,,,,,
CDISC.ADaMIG.AD0060,AD0060,60,1.3,1,ALL,,,*DTM,,,,,,A variable with a suffix of DTM is not a numeric variable,A variable is not a numeric variable,,,,,,,,,,,,ADaMIG v1.3,3.1.2,3,"ADaMIG v1.3, Section 3.1.2, Item 3: Variables whose names end in DTM are numeric datetimes",,,,,,,,,,,,,,,,,,,
,AD0061,61,1.3,1,SUBJECT LEVEL ANALYSIS DATASET,,,TRTSDT; TRTSDTM,,,,,,SDTM.EX is present and neither TRTSDT or TRTSDTM are present,Neither TRTSDT or TRTSDTM are present,SDTM.EX is present,,,,,,,,,,,ADaMIG v1.3,3.2,Table 3.2.6,"ADaMIG v1.3, Section 3.2, Table 3.2.6: TRTSDT and/or TRTSDTM are required if there is an investigational product.",,,,,,,,,,,,,,,,,,,
CDISC.ADaMIG.AD064,AD0064,64,1.3,1,SUBJECT LEVEL ANALYSIS DATASET,,,"TRTxxAN where xx is an integer [01-99, zero-padded]",,,,,,TRTxxAN is present and TRTxxA is not present,TRTxxA is not present,TRTxxAN is present,,,,,,,,,,,ADaMIG v1.3,3.1.1,6,"ADaMIG v1.3, Section 3.1.1, Item 6: When a secondary variable is included in the dataset, then the primary variable must also be included",,,,,,,,,,,,,,,,,,,
,AD0066,66,1.3,1,SUBJECT LEVEL ANALYSIS DATASET,,,,,,,,,"A variable with a prefix of TR, containing PG and a suffix of N is present and a variable with the same root without a suffix of N is not present",A  variable with the same root without a suffix of N is not present,"A variable with a prefix of TR, containing PG and a suffix of N is present",,,,,,,,,,,ADaMIG v1.3,3.1.1,7,"ADaMIG v1.3, Section 3.1.1, Item 7: the secondary variable of the variable pair cannot be present in the dataset unless the primary variable is also present",,,,,,,,,,,,,,,,,,,
CDSIC.ADaMIG.AD0070,AD0070,70,1.3,1,SUBJECT LEVEL ANALYSIS DATASET,,,,,,,,,"A variable with a prefix of TR, containing AG with a suffix of N is present and a variable with the same root without a suffix of N is not present",A  variable with the same root without a suffix of N is not present,"A variable with a prefix of TR, containing AG and a suffix of N is present",,,,,,,,,,,ADaMIG v1.3,3.1.1,7,"ADaMIG v1.3, Section 3.1.1, Item 7: the secondary variable of the variable pair cannot be present in the dataset unless the primary variable is also present",,,,,,,,,,,,,,,,,,,
CDISC.ADaMIG.AD071,AD0071,71,1.3,1,SUBJECT LEVEL ANALYSIS DATASET,,,,,,,,,ARM is not present within ADSL,ARM is not present,,,,,,,,,,,,ADaMIG v1.3,3.2,Table 3.2.4,"ADaMIG v1.3, Section 3.2, Table 3.2.4: ARM has Core=Req.",,,,,,,,,,,,,,,,,,,
CDISC.ADaMIG.AD072,AD0072,72,1.3,1,SUBJECT LEVEL ANALYSIS DATASET,,,,,,,,,TRT01P is not present within ADSL,TRT01P is not present,,,,,,,,,,,,ADaMIG v1.3,3.2,Table 3.2.4,"ADaMIG v1.3, Section 3.2, Table 3.2.4: At least TRT01P is required",,,,,,,,,,,,,,,,,,,
,AD0075,75,1.3,1,SUBJECT LEVEL ANALYSIS DATASET,,,"TRTxxPN where xx is an integer [01-99, zero-padded]",,,,,,TRTxxPN is present and TRTxxP is not present,TRTxxP is not present,TRTxxPN is present,,,,,,,,,,,ADaMIG v1.3,3.1.1,7,"ADaMIG v1.3, Section 3.1.1, Item 7: the secondary variable of the variable pair cannot be present in the dataset unless the primary variable is also present",,,,,,,,,,,,,,,,,,,
,AD0076,76,1.0,1,SUBJECT LEVEL ANALYSIS DATASET,,,"TRTxxPN where xx is an integer [01-99, zero-padded]",,,,,,There is more than one value of TRTxxPN for a given value of TRTxxP,There is more than one value of TRTxxPN for a given value of TRTxxP,,,,,,,,,,,,ADaMIG v1.0,3.1,Table 3.1.1,"ADaMIG v1.0, Section 3.1, Table 3.1.1: One-to-one map to TRTxxP",,,,,,,,,,,,,,,,,,,
,AD0077,77,1.0,1,SUBJECT LEVEL ANALYSIS DATASET,,,"TRTxxP where xx is an integer [01-99, zero-padded]",,,,,,There is more than one value of TRTxxP for a given value of TRTxxPN,There is more than one value of TRTxxP for a given value of TRTxxPN,,,,,,,,,,,,ADaMIG v1.0,3.1,Table 3.1.1,"ADaMIG v1.0, Section 3.1, Table 3.1.1: One-to-one map to TRTxxP",,,,,,,,,,,,,,,,,,,
,AD0078,78,1.3,1,SUBJECT LEVEL ANALYSIS DATASET,,,"TRTxxP where xx is an integer [01-99, zero-padded]",,,,,,At least one TRTxxP is present where xx is greater than 01 and TRxxSDT is not present,TRxxSDT is not present,At least one TRTxxP is present where xx is greater than 01,,,,,,,,,,,ADaMIG v1.3,3.2,Table 3.2.6,"ADaMIG v1.3, Section 3.2, Table 3.2.6: TRxxSDT and/or TRxxSDTM are only required in trial designs where multiple treatment periods are defined (i.e., required when there is a TRTxxP other than TRT01P). Examples include crossover designs or designs where multiple periods exist for the same treatment.",,,,,,,,,,,,,,,,,,,
,AD0079,79,1.3,1,SUBJECT LEVEL ANALYSIS DATASET,,,"TRTxxP where xx is an integer [01-99, zero-padded]",,,,,,At least one TRTxxP is present where xx is greater than 01 and TRxxEDT is not present,TRxxEDT is not present,At least one TRTxxP is present where xx is greater than 01,,,,,,,,,,,ADaMIG v1.3,3.2,Table 3.2.6,"ADaMIG v1.3, Section 3.2, Table 3.2.6: TRxxEDT and/or TRxxEDTM are only required in trial designs where multiple treatment periods are defined (i.e., required when there is a TRTxxP other than TRT01P).",,,,,,,,,,,,,,,,,,,
CDISC.ADaMIG.AD080,AD0080,80,1.3,1,SUBJECT LEVEL ANALYSIS DATASET,,,"TRTxxA where xx is an integer [01-99, zero-padded]",,,,,,TRTxxA is present and TRTxxP is not present,TRTxxP is not present,TRTxxA is present,,,,,,,,,,,ADaMIG v1.3,3.2,Table 3.2.4,"ADaMIG v1.3, Section 3.2, Table 3.2.4: CDISC Notes for TRTxxP state: ""At least TRT01P is required.""",,,,,,,,,,,,,,,,,,,
,AD0081,81,1.3,1,SUBJECT LEVEL ANALYSIS DATASET,,,"TRTxxP where xx is an integer [01-99, zero-padded]",,,,,,TRTxxP is present and xx is greater than 01 and TRT{xx-1}P is not present,TRT{xx-1}P is not present,TRTxxP is present and xx is greater than 01,,,,,,,,,,,ADaMIG v1.3,3.1.1; 3.2,2e; Table 3.2.4,"ADaMIG v1.3, Section 3.1.1, Item 2e: If an indexed variable is included in a dataset, there is no requirement that the preceding variable(s) in the sequence be included. For example, a dataset might include ANL02FL but not ANL01FL.

ADaMIG v1.3, Section 3.2, Table 3.2.4: CDISC Notes for TRTxxP state: ""At least TRT01P is required.""

The ADaM Team acknowledges that this cited text does not adequately support the creation of a conformance rule; however, this may be clarified in a future version of the ADaMIG.",,,,,,,,,,,,,,,,,,,
,AD0084,84,1.3,1,SUBJECT LEVEL ANALYSIS DATASET,,,TRTEDT,,,,,,TRTEDT is not equal to the maximum value of all TRxxEDT variables,Variable is not equal to the maximum value of all TRxxEDT variables,,,,,,,,,,,,ADaMIG v1.3,3.2,Table 3.2.6,"ADaMIG v1.3, Section 3.2, Table 3.2.6: TRTEDT - Date of last exposure to treatment for a subject in a study",,,,,,,,,,,,,,,,,,,
,AD0085,85,1.3,1,ALL,,,,,,,,,A variable is present with the same name as a variable present in ADSL but the variables do not have identical labels,Variables do not have identical labels,A variable is present with the same name as a variable present in ADSL,,,,,,,,,,,ADaMIG v1.3,3.3,,"ADaMIG v1.3, Section 3.3: See Section 3.2 for ADSL variables, any of which may be copied to BDS datasets to support traceability or enable analysis.",,,,,,,,,,,,,,,,,,,
,AD0086,86,1.3,1,ALL,,,,,,,,,A variable is present with the same name as a variable present in ADSL but the variables do not have identical formats,Variables do not have identical formats,A variable is present with the same name as a variable present in ADSL,,,,,,,,,,,ADaMIG v1.3,3.3,,"ADaMIG v1.3, Section 3.3: See Section 3.2 for ADSL variables, any of which may be copied to BDS datasets to support traceability or enable analysis.",,,,,,,,,,,,,,,,,,,
CDISC.ADAMIG.AD0088,AD0088,88,1.3,1,ALL,,,,,,,,,STUDYID is not present,STUDYID is not present,,,,,,,,,,,,ADaMIG v1.3,3.2; 3.3,Table 3.2.1; Table 3.3.1.1,"ADaMIG v1.3, Section 3.2, Table 3.2.1: STUDYID has Core=Req.

ADaMIG v1.3, Section 3.3, Table 3.3.1.1: STUDYID has Core=Req.",,,,,,,,,,,,,,,,,,,
CDISC.ADAMIG.AD0089,AD0089,89,1.3,1,ALL,,,,,,,,,USUBJID is not present,USUBJID is not present,,,,,,,,,,,,ADaMIG v1.3,3.2; 3.3,Table 3.2.1; Table 3.3.1.1,"ADaMIG v1.3, Section 3.2, Table 3.2.1: USUBJID has Core=Req.

ADaMIG v1.3, Section 3.3, Table 3.3.1.1: USUBJID has Core=Req.",,,,,,,,,,,,,,,,,,,
,AD0090,90,1.0,1,BASIC DATA STRUCTURE,,,,,,,,,TRTP is not present,TRTP is not present,,,,,,,,,,,,ADaMIG v1.0,3.2,Table 3.2.2.1,"ADaMIG v1.0, Section 3.2, Table 3.2.2.1: TRTP has Core=Req.",,,,,,,,,,,,,,,,,,,
,AD0092,92,1.0,1,BASIC DATA STRUCTURE,,,TRTPN,,,,,,There is more than one value of TRTPN for a given value of TRTP,There is more than one value of TRTPN for a given value of TRTP,,,,,,,,,,,,ADaMIG v1.0,3.2.2,Table 3.2.2.1,"ADaMIG v1.0, Section 3.2.2, Table 3.2.2.1: The numeric code for TRTP. One-to-one map to TRTP.",,,,,,,,,,,,,,,,,,,
,AD0093,93,1.0,1,BASIC DATA STRUCTURE,,,TRTP,,,,,,There is more than one value of TRTP for a given value of TRTPN,There is more than one value of TRTP for a given value of TRTPN,,,,,,,,,,,,ADaMIG v1.0,3.2.2,Table 3.2.2.1,"ADaMIG v1.0, Section 3.2.2, Table 3.2.2.1: The numeric code for TRTP. One-to-one map to TRTP.",,,,,,,,,,,,,,,,,,,
,AD0095,95,1.0,1,BASIC DATA STRUCTURE,,,TRTAN,,,,,,There is more than one value of TRTAN for a given value of TRTA,There is more than one value of TRTAN for a given value of TRTA,,,,,,,,,,,,ADaMIG v1.0,3.2.2,Table 3.2.2.1,"ADaMIG v1.0, Section 3.2.2, Table 3.2.2.1: The numeric code for TRTA. One-to-one map to TRTA.",,,,,,,,,,,,,,,,,,,
,AD0096,96,1.0,1,BASIC DATA STRUCTURE,,,TRTA,,,,,,There is more than one value of TRTA for a given value of TRTAN,There is more than one value of TRTA for a given value of TRTAN,,,,,,,,,,,,ADaMIG v1.0,3.2.2,Table 3.2.2.1,"ADaMIG v1.0, Section 3.2.2, Table 3.2.2.1: The numeric code for TRTA. One-to-one map to TRTA.",,,,,,,,,,,,,,,,,,,
,AD0097,97,1.3,2,BASIC DATA STRUCTURE; MEDICAL DEVICE BASIC DATA STRUCTURE,,,"TRTPGy where y is an integer [1-99, not zero-padded]",,,,,,TRTPGyN is present and TRTPGy is not present,TRTPGy is not present,TRTPGyN is present,,,,,,,,,,,ADaMIG v1.3; ADaMIG-MD v1.0,3.3.2; 3.1,Table 3.3.2.1,"ADaMIG v1.3, Section 3.3.2, Table 3.3.2.1: TRTPGyN cannot be present unless TRTPGy is also present.

ADaMIG-MD v1.0, Section 3.1: The MDBDS supports analysis needs by adding SPDEVID as a required key variable and USUBJID as a conditionally required variable. See the BDS class for further details.",,Added MEDICAL DEVICE BASIC DATA STRUCTURE to the Class,,,,,,,,,,,,,,,,,
,AD0098,98,1.3,2,BASIC DATA STRUCTURE; MEDICAL DEVICE BASIC DATA STRUCTURE,,,*SDY,,,,,,"On a given record, a variable with a suffix of SDY has a value greater than a value of a variable with the same root and a suffix of EDY, and both variables are populated",A variable with a suffix of SDY has a value greater than a value of a variable with the same root and a suffix of EDY,On rows where *SDY and *EDY are both populated,,,,,,,,,,,ADaMIG v1.3; ADaMIG-MD v1.0,3.1,,"There is no guidance in the ADaMIG to support this rule, however this rule can help identify issues with the data which may impact analysis.

ADaMIG-MD v1.0, Section 3.1: The MDBDS supports analysis needs by adding SPDEVID as a required key variable and USUBJID as a conditionally required variable. See the BDS class for further details.",,Added MEDICAL DEVICE BASIC DATA STRUCTURE to the Class,,,,,,,,,,,,,,,,,
,AD0099,99,1.3,2,BASIC DATA STRUCTURE; MEDICAL DEVICE BASIC DATA STRUCTURE,,,*STDY,,,,,,"On a given record, a variable with a suffix of STDY has a value greater than a value of a variable with the same root and a suffix of ENDY, and both variables are populated",A variable with a suffix of STDY has a value greater than a value of a variable with the same root and a suffix of ENDY,On rows where *STDY and *ENDY are both populated,,,,,,,,,,,ADaMIG v1.3; ADaMIG-MD v1.0,3.1,,"There is no guidance in the ADaMIG to support this rule, however this rule can help identify issues with the data which may impact analysis.

ADaMIG-MD v1.0, Section 3.1: The MDBDS supports analysis needs by adding SPDEVID as a required key variable and USUBJID as a conditionally required variable. See the BDS class for further details.",,Added MEDICAL DEVICE BASIC DATA STRUCTURE to the Class,,,,,,,,,,,,,,,,,
,AD0102,102,1.3,1,ALL,,,APERIOD,,,,,,"For every unique xx value of APERIOD, there is not an ADSL variable TRTxxP",The value of APERIOD does not have a corresponding xx component of a TRTxxP variable in ADSL,APERIOD is populated,,,,,,,,,,,ADaMIG v1.3,3.3.3,Table 3.3.3.1,"ADaMIG v1.3, Section 3.3.3, Table 3.3.3.1: APERIOD is a record-level timing variable that represents the analysis period within the study associated with the record for analysis purposes. The value of APERIOD (if populated) must be one of the xx values found in the ADSL TRTxxP variable names.",,,,,,,,,,,,,,,,,,,
,AD0103,103,1.3,1,ALL,,,APERIOD,,,,,,"For every unique xx value of APERIOD, there is not an ADSL variable TRxxSDT",The value of APERIOD does not have a corresponding xx component of a TRxxSDT variable in ADSL,APERIOD is greater than 1,,,,,,,,,,,ADaMIG v1.3,3.3.3,Table 3.3.3.1,"ADaMIG v1.3, Section 3.3.3, Table 3.3.3.1: APERIOD is a record-level timing variable that represents the analysis period within the study associated with the record for analysis purposes. The value of APERIOD (if populated) must be one of the xx values found in the ADSL TRTxxP variable names.",,,,,,,,,,,,,,,,,,,
,AD0104,104,1.3,1,ALL,,,APERIOD,,,,,,"For every unique xx value of APERIOD, there is not an ADSL variable TRxxEDT",The value of APERIOD does not have a corresponding xx component of a TRxxEDT variable in ADSL,APERIOD is greater than 1,,,,,,,,,,,ADaMIG v1.3,3.3.3,Table 3.3.3.1,"ADaMIG v1.3, Section 3.3.3, Table 3.3.3.1: APERIOD is a record-level timing variable that represents the analysis period within the study associated with the record for analysis purposes. The value of APERIOD (if populated) must be one of the xx values found in the ADSL TRTxxP variable names.",,,,,,,,,,,,,,,,,,,
,AD0105,105,1.0,1,ALL,,,APERIODC,,,,,,There is more than one value of APERIODC for a given value of APERIOD,There is more than one value of APERIODC for a given value of APERIOD,,,,,,,,,,,,ADaMIG v1.0,3.2.3,Table 3.2.3.1,"ADaMIG v1.0, Section 3.2.3, Table 3.2.3.1: Text characterizing to which period the record belongs. One-to-one map to APERIOD.",,,,,,,,,,,,,,,,,,,
,AD0106,106,1.0,1,ALL,,,APERIOD,,,,,,There is more than one value of APERIOD for a given value of APERIODC,There is more than one value of APERIOD for a given value of APERIODC,,,,,,,,,,,,ADaMIG v1.0,3.2.3,Table 3.2.3.1,"ADaMIG v1.0, Section 3.2.3, Table 3.2.3.1: Text characterizing to which period the record belongs. One-to-one map to APERIOD.",,,,,,,,,,,,,,,,,,,
,AD0109,109,1.0,1,BASIC DATA STRUCTURE,,,AVISITN,,,,,,"Within a given value of PARAMCD, there is more than one value of AVISITN for a given value of AVISIT","Within a given value of PARAMCD, there is more than one value of AVISITN for a given value of AVISIT",,,,,,,,,,,,ADaMIG v1.0,3.2.3,Table 3.2.3.1,"ADaMIG v1.0, Section 3.2.3, Table 3.2.3.1: Within a parameter, there is a one-to-one mapping between AVISITN and AVISIT so that AVISITN has the same value for each distinct AVISIT.",,,,,,,,,,,,,,,,,,,
,AD0110,110,1.0,1,BASIC DATA STRUCTURE,,,AVISIT,,,,,,"Within a given value of PARAMCD, there is more than one value of AVISIT for a given value of AVISITN","Within a given value of PARAMCD, there is more than one value of AVISIT for a given value of AVISITN",,,,,,,,,,,,ADaMIG v1.0,3.2.3,Table 3.2.3.1,"ADaMIG v1.0, Section 3.2.3, Table 3.2.3.1: Within a parameter, there is a one-to-one mapping between AVISITN and AVISIT so that AVISITN has the same value for each distinct AVISIT.",,,,,,,,,,,,,,,,,,,
CDISC.ADAMIG.111,AD0111,111,1.3,2,BASIC DATA STRUCTURE; MEDICAL DEVICE BASIC DATA STRUCTURE,,,,,,,,,ARELTM is present and ARELTMU is not present,ARELTMU is not present,ARELTM is present,,,,,,,,,,,ADaMIG v1.3; ADaMIG-MD v1.0,3.3.3; 3.1,Table 3.3.3.1,"ADaMIG v1.3, Section 3.3.3, Table 3.3.3.1: When ARELTM is present, the anchor time variable and ARELTMU must also be included in the dataset, and the anchor time variable must be identified in the metadata for ARELTM.

ADaMIG-MD v1.0, Section 3.1: The MDBDS supports analysis needs by adding SPDEVID as a required key variable and USUBJID as a conditionally required variable. See the BDS class for further details.",,Added MEDICAL DEVICE BASIC DATA STRUCTURE to the Class,,,,,,,,,,,,,,,,,
CDSIC.ADaMIG.AD0112,AD0112,112,1.3,2,BASIC DATA STRUCTURE; MEDICAL DEVICE BASIC DATA STRUCTURE,,,ARELTMU,,,,,,ARELTM is populated and ARELTMU is not populated,ARELTMU is not populated,ARELTM is populated,,,,,,,,,,,ADaMIG v1.3; ADaMIG-MD v1.0,3.3.3; 3.1,Table 3.3.3.1,"ADaMIG v1.3, Section 3.3.3, Table 3.3.3.1: When ARELTM is present, the anchor time variable and ARELTMU must also be included in the dataset, and the anchor time variable must be identified in the metadata for ARELTM.

ADaMIG-MD v1.0, Section 3.1: The MDBDS supports analysis needs by adding SPDEVID as a required key variable and USUBJID as a conditionally required variable. See the BDS class for further details.",,Added MEDICAL DEVICE BASIC DATA STRUCTURE to the Class,,,,,,,,,,,,,,,,,
CDSIC.ADaMIG.AD0113,AD0113,113,1.3,2,BASIC DATA STRUCTURE; MEDICAL DEVICE BASIC DATA STRUCTURE,,,,,,,,,ARELTMU is present and ARELTM is not present,ARELTM is not present,ARELTMU is present,,,,,,,,,,,ADaMIG v1.3; ADaMIG-MD v1.0,3.3.3; 3.1,Table 3.3.3.1,"ADaMIG v1.3, Section 3.3.3, Table 3.3.3.1: The units of ARELTM. For example, ""HOURS"" or ""MINUTES"" ARELTMU is required if ARELTM is present.

ADaMIG-MD v1.0, Section 3.1: The MDBDS supports analysis needs by adding SPDEVID as a required key variable and USUBJID as a conditionally required variable. See the BDS class for further details.",,Added MEDICAL DEVICE BASIC DATA STRUCTURE to the Class,,,,,,,,,,,,,,,,,
,AD0117,117,1.3,1,BASIC DATA STRUCTURE; MEDICAL DEVICE BASIC DATA STRUCTURE,,,ATPT,,,,,,"Within a given value of PARAMCD, there is more than one value of ATPT for a given value of ATPTN","Within a given value of PARAMCD, there is more than one value of ATPT for a given value of ATPTN",,,,,,,,,,,,ADaMIG v1.3; ADaMIG-MD v1.0,3.3.3; 3.1,Table 3.3.3.1,"ADaMIG v1.3, Section 3.3.3, Table 3.3.3.1: There must be a one-to-one relationship between ATPTN and ATPT within a parameter.

ADaMIG-MD v1.0, Section 3.1: The MDBDS supports analysis needs by adding SPDEVID as a required key variable and USUBJID as a conditionally required variable. See the BDS class for further details.",,,,,,,,,,,,,,,,,,,
,AD0118,118,1.3,1,BASIC DATA STRUCTURE; MEDICAL DEVICE BASIC DATA STRUCTURE,,,ATPTN,,,,,,"Within a given value of PARAMCD, there is more than one value of ATPTN for a given value of ATPT","Within a given value of PARAMCD, there is more than one value of ATPTN for a given value of ATPT",,,,,,,,,,,,ADaMIG v1.3; ADaMIG-MD v1.0,3.3.3; 3.1,Table 3.3.3.1,"ADaMIG v1.3, Section 3.3.3, Table 3.3.3.1: There must be a one-to-one relationship between ATPTN and ATPT within a parameter.

ADaMIG-MD v1.0, Section 3.1: The MDBDS supports analysis needs by adding SPDEVID as a required key variable and USUBJID as a conditionally required variable. See the BDS class for further details.",,,,,,,,,,,,,,,,,,,
,AD0121,121,1.3,1,ALL,,,*SDT,,,,,,"The value of a variable with a suffix of SDT is greater than the value of a variable with the same root and a suffix of EDT, considering only rows on which both variables are populated",A variable with a suffix of SDT has a value greater than a value of a variable with the same root and a suffix of EDT,On rows where *SDT and *EDT are both populated,,,,,,,,,,,ADaMIG v1.3,3.1.2,6,"ADaMIG v1.3, Section 3.1.2, Item 6: Names of timing start variables end with an S followed by the characters indicating the type of timing (i.e., SDT, STM, SDTM), unless otherwise specified elsewhere in Section 3, Standard ADaM Variables.

The ADaM Team acknowledges that this cited text does not adequately support the creation of a conformance rule.  See definition of Message Type=""Note"" in Section 3, Description of ADaM Conformance Rules Table.",,,,,,,,,,,,,,,,,,,
,AD0122,122,1.3,1,ALL,,,*SDTM,,,,,,"The value of a variable with a suffix of SDTM is greater than the value of a variable with the same root and a suffix of EDTM, considering only rows on which both variables are populated",A variable with a suffix of SDTM has a value greater than a value of a variable with the same root and a suffix of EDTM,On rows where *SDTM and *EDTM are both populated,,,,,,,,,,,ADaMIG v1.3,3.1.2,7,"ADaMIG v1.3, Section 3.1.2, Item 7: Names of timing end variables end with an E followed by the characters indicating the type of timing (i.e., EDT, ETM, EDTM), unless otherwise specified elsewhere in Section 3, Standard ADaM Variables.

The ADaM Team acknowledges that this cited text does not adequately support the creation of a conformance rule.  See definition of Message Type=""Note"" in Section 3, Description of ADaM Conformance Rules Table.",,,,,,,,,,,,,,,,,,,
,AD0123,123,1.1,1,BASIC DATA STRUCTURE,,,PARAMTYP,,,,,,There is more than one value of PARAMTYP for a given value of PARAMCD,There is more than one value of PARAMTYP for a given value of PARAMCD,,,,,,,,,,,,ADaMIG v1.1,3.3.4,Table 3.3.4.1,"ADaMIG v1.1, Section 3.3.4, Table 3.3.4.1: Indicator of whether the parameter is derived as a function of one or more other parameters.",,,,,,,,,,,,,,,,,,,
,AD0124,124,1.3,2,BASIC DATA STRUCTURE; MEDICAL DEVICE BASIC DATA STRUCTURE,,,"PARCATy where y is an integer [1-99, not zero-padded]",,,,,,There is more than one value of PARCATy for a given value of PARAMCD,There is more than one value of PARCATy for a given value of PARAMCD,,,,,,,,,,,,ADaMIG v1.3; ADaMIG-MD v1.0,3.3.4.1; 3.1,Table 3.3.4.1.1,"ADaMIG v1.3, Section 3.3.4.1, Table 3.3.4.1.1: Note that PARCATy is not a qualifier for PARAM. PARAM to PARCATy is a many-to-one mapping; any given PARAM may be associated with at most one level of PARCATy (e.g., one level of PARCAT1 and one level of PARCAT2).

ADaMIG-MD v1.0, Section 3.1: The MDBDS supports analysis needs by adding SPDEVID as a required key variable and USUBJID as a conditionally required variable. See the BDS class for further details.",,Added MEDICAL DEVICE BASIC DATA STRUCTURE to the Class,,,,,,,,,,,,,,,,,
,AD0125,125,1.0,1,BASIC DATA STRUCTURE,,,"PARCATy where y is an integer [1-9, not zero-padded]",,,,,,There is more than one value of PARCATy for a given value of PARCATyN,There is more than one value of PARCATy for a given value of PARCATyN,,,,,,,,,,,,ADaMIG v1.0,3.2.4,Table 3.2.4.1,"ADaMIG v1.0, Section 3.2.4, Table 3.2.4.1: There should be a one to one relationship between PARCATy and PARCATyN.",,,,,,,,,,,,,,,,,,,
,AD0126,126,1.0,1,BASIC DATA STRUCTURE,,,"PARCATyN where y is an integer [1-9, not zero-padded]",,,,,,There is more than one value of PARCATyN for a given value of PARCATy,There is more than one value of PARCATyN for a given value of PARCATy,,,,,,,,,,,,ADaMIG v1.0,3.2.4,Table 3.2.4.1,"ADaMIG v1.0, Section 3.2.4, Table 3.2.4.1: There should be a one to one relationship between PARCATy and PARCATyN.",,,,,,,,,,,,,,,,,,,
,AD0127,127,1.3,1,BASIC DATA STRUCTURE,,,ABLFL,,,,,,"Within a given value of PARAMCD for a subject, BASE is populated and there is not at least one record with ABLFL equal to Y",Within a given value of PARAMCD for a subject there is not at least one record with ABLFL equal to Y,BASE is populated,,,,,,,,,,,ADaMIG v1.3,3.3.4.1,Table 3.3.4.1.1,"ADaMIG v1.3, Section 3.3.4.1, Table 3.3.4.1.1: If BASE is populated for a parameter, and BASE is non-null for a subject for that parameter, then there must be a record flagged by ABLFL for that subject and parameter",,,,,,,,,,,,,,,,,,,
,AD0128,128,1.3,1,BASIC DATA STRUCTURE,,,ABLFL,,,,,,"Within a given value of PARAMCD for a subject, BASEC is populated and there is not at least one record with ABLFL equal to Y",Within a given value of PARAMCD for a subject there is not at least one record with ABLFL equal to Y,BASEC is populated,,,,,,,,,,,ADaMIG v1.3,3.3.4.1,Table 3.3.4.1.1,"ADaMIG v1.3, Section 3.3.4.1, Table 3.3.4.1.1: BASEC contains the value of AVALC copied from a record within the parameter on which ABLFL = ""Y"".",,,,,,,,,,,,,,,,,,,
,AD0129,129,1.0,1,BASIC DATA STRUCTURE,,,BASE,,,,,,"Within a given value of PARAMCD for a subject, there is more than one value of BASE for a given value of BASEC","Within a given value of PARAMCD for a subject, there is more than one value of BASE for a given value of BASEC",,,,,,,,,,,,ADaMIG v1.0,3.2.4,Table 3.2.4.1,"ADaMIG v1.0, Section 3.2.4, Table 3.2.4.1: There must be a one-to-one map between BASE and BASEC within a given PARAM if both are populated.",,,,,,,,,,,,,,,,,,,
,AD0130,130,1.0,1,BASIC DATA STRUCTURE,,,BASEC,,,,,,"Within a given value of PARAMCD for a subject, there is more than one value of BASEC for a given value of BASE","Within a given value of PARAMCD for a subject, there is more than one value of BASEC for a given value of BASE",,,,,,,,,,,,ADaMIG v1.0,3.2.4,Table 3.2.4.1,"ADaMIG v1.0, Section 3.2.4, Table 3.2.4.1: There must be a one-to-one map between BASE and BASEC within a given PARAM if both are populated.",,,,,,,,,,,,,,,,,,,
,AD0131,131,1.2,1,BASIC DATA STRUCTURE,,,BASETYPE,,,,,,"Within a given value of PARAMCD, BASETYPE is populated for at least one record and is not populated for at least one record","Within a given value of PARAMCD, BASETYPE is populated for at least one record and is not populated for at least one record",,,,,,,,,,,,ADaMIG v1.2,3.3.4.1; 4.2.1.6,Table 3.3.4.1.1,"ADaMIG v1.2, Section 3.3.4.1, Table 3.3.4.1.1: If used for any PARAM within a dataset, should be non-null for all records of that dataset.

ADaMIG v1.2, Section 4.2.1.6: Whenever there is more than one definition of baseline, the BASETYPE column is required. BASETYPE identifies the definition of baseline that corresponds to the value of BASE in each row.",,,,,,,,,,,,,,,,,,,
,AD0132,132,1.3,2,BASIC DATA STRUCTURE; MEDICAL DEVICE BASIC DATA STRUCTURE,,,R2BASE,,,,,,R2BASE is not equal to AVAL divided by BASE,R2BASE is not equal to AVAL divided by BASE,AVAL and BASE are populated,,,,,,,,,,,ADaMIG v1.3; ADaMIG-MD v1.0,3.3.4.1; 3.1,Table 3.3.4.1.1,"ADaMIG v1.3, Section 3.3.4.1, Table 3.3.4.1.1: Ratio to the baseline value. Equal to AVAL / BASE.

ADaMIG-MD v1.0, Section 3.1: The MDBDS supports analysis needs by adding SPDEVID as a required key variable and USUBJID as a conditionally required variable. See the BDS class for further details.",,Added MEDICAL DEVICE BASIC DATA STRUCTURE to the Class,,,,,,,,,,,,,,,,,
,AD0133,133,1.3,2,BASIC DATA STRUCTURE; MEDICAL DEVICE BASIC DATA STRUCTURE,,,"R2AyLO where y is an integer [1-99, not zero-padded]",,,,,,R2AyLO is not equal to AVAL divided by AyLO,R2AyLO is not equal to AVAL divided by AyLO,AVAL and AyLO are populated,,,,,,,,,,,ADaMIG v1.3; ADaMIG-MD v1.0,3.3.4.1; 3.1,Table 3.3.4.1.1,"ADaMIG v1.3, Section 3.3.4.1, Table 3.3.4.1.1: Ratio to the lower limit of the analysis range y. Equal to AVAL / AyLO.

ADaMIG-MD v1.0, Section 3.1: The MDBDS supports analysis needs by adding SPDEVID as a required key variable and USUBJID as a conditionally required variable. See the BDS class for further details.",,Added MEDICAL DEVICE BASIC DATA STRUCTURE to the Class,,,,,,,,,,,,,,,,,
,AD0134,134,1.3,2,BASIC DATA STRUCTURE; MEDICAL DEVICE BASIC DATA STRUCTURE,,,"R2AyHI where y is an integer [1-99, not zero-padded]",,,,,,R2AyHI is not equal to AVAL divided by AyHI,R2AyHI is not equal to AVAL divided by AyHI,AVAL and AyHI are populated,,,,,,,,,,,ADaMIG v1.3; ADaMIG-MD v1.0,3.3.4.1; 3.1,Table 3.3.4.1.1,"ADaMIG v1.3, Section 3.3.4.1, Table 3.3.4.1.1: Ratio to the upper limit of the analysis range y. Equal to AVAL / AyHI.

ADaMIG-MD v1.0, Section 3.1: The MDBDS supports analysis needs by adding SPDEVID as a required key variable and USUBJID as a conditionally required variable. See the BDS class for further details.",,Added MEDICAL DEVICE BASIC DATA STRUCTURE to the Class,,,,,,,,,,,,,,,,,
,AD0135,135,1.0,1,BASIC DATA STRUCTURE,,,"SHIFTy where y is an integer [1-9, not zero-padded]",,,,,,"Within a given value of PARAMCD, there is more than one value of SHIFTy for a given value of SHIFTyN","Within a given value of PARAMCD, there is more than one value of SHIFTy for a given value of SHIFTyN",,,,,,,,,,,,ADaMIG v1.0,3.2.4,Table 3.2.4.1,"ADaMIG v1.0, Section 3.2.4, Table 3.2.4.1: SHIFTN has a one-to-one mapping relationship with SHIFT.

The ADaM Team acknowledges that this cited text does not adequately support the creation of a conformance rule.  The intent of the ADaM Team was clarified in ADaMIG v1.0, Section 3.2.4, Table 3.2.4.1 v1.1.",,,,,,,,,,,,,,,,,,,
,AD0136,136,1.0,1,BASIC DATA STRUCTURE,,,"SHIFTyN where y is an integer [1-9, not zero-padded]",,,,,,"Within a given value of PARAMCD, there is more than one value of SHIFTyN for a given value of SHIFTy","Within a given value of PARAMCD, there is more than one value of SHIFTyN for a given value of SHIFTy",,,,,,,,,,,,ADaMIG v1.0,3.2.4,Table 3.2.4.1,"ADaMIG v1.0, Section 3.2.4, Table 3.2.4.1: SHIFTN has a one-to-one mapping relationship with SHIFT.

The ADaM Team acknowledges that this cited text does not adequately support the creation of a conformance rule.  The intent of the ADaM Team was clarified in ADaMIG v1.0, Section 3.2.4, Table 3.2.4.1 v1.1.",,,,,,,,,,,,,,,,,,,
,AD0137,137,1.3,2,BASIC DATA STRUCTURE; MEDICAL DEVICE BASIC DATA STRUCTURE,,,"CRITy where y is an integer [1-99, not zero-padded]",,,,,,CRITyFL is populated and CRITy is not populated,CRITy is not populated,CRITyFL is populated,,,,,,,,,,,ADaMIG v1.3; ADaMIG-MD v1.0,3.3.4.3; 3.1,Table 3.3.4.3.1,"ADaMIG v1.3, Section 3.3.4.3, Table 3.3.4.3.1: Required if CRITyFL is present. In some cases, the presence of the text string indicates that the criterion is satisfied on this record and CRITyFL is set to Y, while a null value indicates that the criterion is not satisfied or is not evaluable and is accompanied by a null value in CRITyFL. In other cases, the text string identifies the criterion being evaluated and is populated on every row for the parameter, but whether or not the criterion is satisfied is indicated by the value of the variable CRITyFL.

ADaMIG v1.3, Section 3.3.4.3, Table 3.3.4.3.1: Character flag variable indicating whether the criterion defined in CRITy was met by the data on the record.

ADaMIG-MD v1.0, Section 3.1: The MDBDS supports analysis needs by adding SPDEVID as a required key variable and USUBJID as a conditionally required variable. See the BDS class for further details.",,Added MEDICAL DEVICE BASIC DATA STRUCTURE to the Class,,,,,,,,,,,,,,,,,
,AD0141,141,1.0,1,BASIC DATA STRUCTURE,,,PARAM,,,,,,There is more than one value of PARAM for a given value of PARAMCD,There is more than one value of PARAM for a given value of PARAMCD,,,,,,,,,,,,ADaMIG v1.0,3.2.4,Table 3.2.4.1,"ADaMIG v1.0, Section 3.2.4, Table 3.2.4.1: There must be a one-to-one mapping with PARAM.",,,,,,,,,,,,,,,,,,,
,AD0142,142,1.0,1,BASIC DATA STRUCTURE,,,PARAMCD,,,,,,There is more than one value of PARAMCD for a given value of PARAM,There is more than one value of PARAMCD for a given value of PARAM,,,,,,,,,,,,ADaMIG v1.0,3.2.4,Table 3.2.4.1,"ADaMIG v1.0, Section 3.2.4, Table 3.2.4.1: There must be a one-to-one mapping with PARAM.",,,,,,,,,,,,,,,,,,,
CDISC.ADaMIG.AD0143,AD0143,143,1.3,2,BASIC DATA STRUCTURE; MEDICAL DEVICE BASIC DATA STRUCTURE,,,PARAMCD,,,,,,PARAMCD has more than 8 characters in length,PARAMCD has more than 8 characters in length,,,,,,,,,,,,ADaMIG v1.3; ADaMIG-MD v1.0,3.1.1; 3.3.4.1; 3.1,1; Table 3.3.4.1.1,"ADaMIG v1.3, Section 3.1.1, Item 1: To ensure compliance with SAS Version 5 transport file format and Oracle constraints, all ADaM variable names must be no more than 8 characters in length, start with a letter (not underscore), and be comprised only of letters (A-Z), underscore (_), and numerals (0-9). All ADaM variable labels must be no more than 40 characters in length. All ADaM character variables must be no more than 200 characters in length.

ADaMIG v1.3, Section 3.3.4.1, Table 3.3.4.1.1: Values of PARAMCD should follow the SAS Version 5 transport file format and Oracle constraints as noted under General Variable Conventions in Section 3.1.1.

ADaMIG-MD v1.0, Section 3.1: The MDBDS supports analysis needs by adding SPDEVID as a required key variable and USUBJID as a conditionally required variable. See the BDS class for further details.",,Added MEDICAL DEVICE BASIC DATA STRUCTURE to the Class,,,,,,,,,,,,,,,,,
CDISC.ADaMIG.AD0144,AD0144,144,1.3,2,BASIC DATA STRUCTURE; MEDICAL DEVICE BASIC DATA STRUCTURE,,,PARAMCD,,,,,,PARAMCD starts with a character other than a letter,PARAMCD starts with a character other than a letter,,,,,,,,,,,,ADaMIG v1.3; ADaMIG-MD v1.0,3.1.1; 3.3.4.1; 3.1,1; Table 3.3.4.1.1,"ADaMIG v1.3, Section 3.1.1, Item 1: To ensure compliance with SAS Version 5 transport file format and Oracle constraints, all ADaM variable names must be no more than 8 characters in length, start with a letter (not underscore), and be comprised only of letters (A-Z), underscore (_), and numerals (0-9). All ADaM variable labels must be no more than 40 characters in length. All ADaM character variables must be no more than 200 characters in length.

ADaMIG v1.3, Section 3.3.4.1, Table 3.3.4.1.1: Values of PARAMCD should follow the SAS Version 5 transport file format and Oracle constraints as noted under General Variable Conventions in Section 3.1.1.

ADaMIG-MD v1.0, Section 3.1: The MDBDS supports analysis needs by adding SPDEVID as a required key variable and USUBJID as a conditionally required variable. See the BDS class for further details.",,Added MEDICAL DEVICE BASIC DATA STRUCTURE to the Class,,,,,,,,,,,,,,,,,
CDISC.ADaMIG.AD0145,AD0145,145,1.3,2,BASIC DATA STRUCTURE; MEDICAL DEVICE BASIC DATA STRUCTURE,,,PARAMCD,,,,,,"PARAMCD has characters that are not letters, digits, and underscores","PARAMCD has characters that are not letters, digits, and underscores",,,,,,,,,,,,ADaMIG v1.3; ADaMIG-MD v1.0,3.1.1; 3.3.4.1; 3.1,1; Table 3.3.4.1.1,"ADaMIG v1.3, Section 3.1.1, Item 1: To ensure compliance with SAS Version 5 transport file format and Oracle constraints, all ADaM variable names must be no more than 8 characters in length, start with a letter (not underscore), and be comprised only of letters (A-Z), underscore (_), and numerals (0-9). All ADaM variable labels must be no more than 40 characters in length. All ADaM character variables must be no more than 200 characters in length.

ADaMIG v1.3, Section 3.3.4.1, Table 3.3.4.1.1: Values of PARAMCD should follow the SAS Version 5 transport file format and Oracle constraints as noted under General Variable Conventions in Section 3.1.1.

ADaMIG-MD v1.0, Section 3.1: The MDBDS supports analysis needs by adding SPDEVID as a required key variable and USUBJID as a conditionally required variable. See the BDS class for further details.",,Added MEDICAL DEVICE BASIC DATA STRUCTURE to the Class,,,,,,,,,,,,,,,,,
,AD0146,146,1.0,1,BASIC DATA STRUCTURE,,,PARAM,,,,,,"Within a dataset, there is more than one value of PARAM for a given value of PARAMN","Within a dataset, there is more than one value of PARAM for a given value of PARAMN",,,,,,,,,,,,ADaMIG v1.0,3.2.4,Table 3.2.4.1,"ADaMIG v1.0, Section 3.2.4, Table 3.2.4.1: There must be a one-to-one mapping with PARAM.",,,,,,,,,,,,,,,,,,,
,AD0147,147,1.0,1,BASIC DATA STRUCTURE,,,PARAMN,,,,,,"Within a dataset, there is more than one value of PARAMN for a given value of PARAM","Within a dataset, there is more than one value of PARAMN for a given value of PARAM",,,,,,,,,,,,ADaMIG v1.0,3.2.4,Table 3.2.4.1,"ADaMIG v1.0, Section 3.2.4, Table 3.2.4.1: There must be a one-to-one mapping with PARAM.",,,,,,,,,,,,,,,,,,,
,AD0148,148,1.0,1,BASIC DATA STRUCTURE,,,PARAMN,,,,,,PARAMN is not an integer,PARAMN is not an integer,,,,,,,,,,,,ADaMIG v1.0,3.2.4,Table 3.2.4.1,"ADaMIG v1.0, Section 3.2.4, Table 3.2.4.1: Must be an integer.",,,,,,,,,,,,,,,,,,,
,AD0149,149,1.0,1,BASIC DATA STRUCTURE,,,AVALC,,,,,,"Within a given value of PARAMCD, there is more than one value of AVALC for a given value of AVAL","Within a given value of PARAMCD, there is more than one value of AVALC for a given value of AVAL",,,,,,,,,,,,ADaMIG v1.0,3.2.4,Table 3.2.4.1,"ADaMIG v1.0, Section 3.2.4, Table 3.2.4.1: AVALC can be a character string mapping to AVAL, but if so there must be a one-to-one map between AVAL and AVALC within a given PARAM.",,,,,,,,,,,,,,,,,,,
,AD0150,150,1.0,1,BASIC DATA STRUCTURE,,,AVAL,,,,,,"Within a given value of PARAMCD, there is more than one value of AVAL for a given value of AVALC","Within a given value of PARAMCD, there is more than one value of AVAL for a given value of AVALC",,,,,,,,,,,,ADaMIG v1.0,3.2.4,Table 3.2.4.1,"ADaMIG v1.0, Section 3.2.4, Table 3.2.4.1: AVALC can be a character string mapping to AVAL, but if so there must be a one-to-one map between AVAL and AVALC within a given PARAM.",,,,,,,,,,,,,,,,,,,
,AD0151,151,1.3,2,BASIC DATA STRUCTURE; MEDICAL DEVICE BASIC DATA STRUCTURE,,,"CRITy where y is an integer [1-99, not zero-padded]",,,,,,"Within a given value of PARAMCD, there is more than one value of CRITy","Within a given value of PARAMCD, there is more than one value of CRITy",,,,,,,,,,,,ADaMIG v1.3; ADaMIG-MD v1.0,4.7.1; 3.1,,"ADaMIG v1.3, Section 4.7.1: The definition of CRITy can use any variable(s) located on the row, and the definition must stay constant across all rows within the same value of PARAM.

ADaMIG-MD v1.0, Section 3.1: The MDBDS supports analysis needs by adding SPDEVID as a required key variable and USUBJID as a conditionally required variable. See the BDS class for further details.",,Added MEDICAL DEVICE BASIC DATA STRUCTURE to the Class,,,,,,,,,,,,,,,,,
,AD0152,152,1.2,1,BASIC DATA STRUCTURE,,,BASE,,,,,,"BASETYPE is present, BASE is populated, and BASE is not equal to AVAL where ABLFL is equal to Y for a given value of PARAMCD and BASETYPE for a subject",BASE is not equal to AVAL where ABLFL is equal to Y for a given value of PARAMCD and BASETYPE for a subject,BASETYPE is present and BASE is populated,,,,,,,,,,,ADaMIG v1.2,3.3.4.1,Table 3.3.4.1.1,"ADaMIG v1.2, Section 3.3.4.1, Table 3.3.4.1.1: If BASE is populated for a parameter, and BASE is non-null for a subject for that parameter, then there must be a record flagged by ABLFL for that subject and parameter.",,,,,,,,,,,,,,,,,,,
,AD0154,154,1.3,1,BASIC DATA STRUCTURE,,,ABLFL,,,,,,"Within a given PARAMCD and BASETYPE for a subject, more than one record has ABLFL equal to Y","Within a given PARAMCD and BASETYPE for a subject, more than one record has ABLFL equal to Y",BASETYPE is present,,,,,,,,,,,ADaMIG v1.3,3.3.8,Table 3.3.8.1,"ADaMIG v1.3, Section 3.3.8, Table 3.3.8.1: Character indicator to identify the baseline record for each subject, parameter, and baseline type (BASETYPE) combination. See BASETYPE in Table 3.3.4.1.1. ABLFL is required if BASE is present in the dataset.  A baseline record may be derived (e.g., it may be an average), in which case DTYPE must also be populated. If BASE is populated for a parameter, and BASE is non-null for a subject for that parameter, then there must be a record flagged by ABLFL for that subject and parameter.",,,,,,,,,,,,,,,,,,,
,AD0155,155,1.3,1,BASIC DATA STRUCTURE,,,ABLFL,,,,,,"Within a given PARAMCD for a subject, more than one record has ABLFL equal to Y and BASETYPE is not present","Within a given PARAMCD for a subject, more than one record has ABLFL equal to Y",BASETYPE is not present,,,,,,,,,,,ADaMIG v1.3,3.3.8,Table 3.3.8.1,"ADaMIG v1.3, Section 3.3.8, Table 3.3.8.1: Character indicator to identify the baseline record for each subject, parameter, and baseline type (BASETYPE) combination. See BASETYPE in Table 3.3.4.1.1. ABLFL is required if BASE is present in the dataset.  A baseline record may be derived (e.g., it may be an average), in which case DTYPE must also be populated. If BASE is populated for a parameter, and BASE is non-null for a subject for that parameter, then there must be a record flagged by ABLFL for that subject and parameter.",,,,,,,,,,,,,,,,,,,
,AD0156,156,1.0,1,BASIC DATA STRUCTURE,,,"CRITyFL where y is an integer [1-9, not zero-padded]",,,,,,"A variable with a prefix of CRIT, a suffix of FL and containing a one-digit number (CRITyFL) is present and a variable with the same root without a suffix of FL (CRITy) is not present","A variable with a prefix of CRIT, a suffix of FL and containing a one-digit number is present and a variable with the same root without a suffix of FL is not present",CRITyFL is present,,,,,,,,,,,ADaMIG v1.0,3.2.6,Table 3.2.6.1,"ADaMIG v1.0, Section 3.2.6, Table 3.2.6.1: Character indicator of whether the criterion defined in CRITy was met. See also CRITy in Section 3.2.4. Required if CRITy exists.",,,,,,,,,,,,,,,,,,,
,AD0157,157,1.3,2,BASIC DATA STRUCTURE; MEDICAL DEVICE BASIC DATA STRUCTURE,,,"CRITy where y is an integer [1-99, not zero-padded]",,,,,,A variable with a prefix of CRIT and a suffix of a one-digit number (CRITy) is present and a variable with the same root with a suffix of FL (CRITyFL) is not present,A variable with a prefix of CRIT and a suffix of a one-digit number is present and a variable with the same root with a suffix of FL is not present,CRITy is present,,,,,,,,,,,ADaMIG v1.3; ADaMIG-MD v1.0,3.3.4.3; 3.1,Table 3.3.4.3.1,"ADaMIG v1.3, Section 3.3.4.3, Table 3.3.4.3.1: Character flag variable indicating whether the criterion defined in CRITy was met by the data on the record. See CRITy for more information regarding how to use CRITy and CRITyFL to indicate whether a criterion is met. Required if CRITy exists.

ADaMIG-MD v1.0, Section 3.1: The MDBDS supports analysis needs by adding SPDEVID as a required key variable and USUBJID as a conditionally required variable. See the BDS class for further details.",,Added MEDICAL DEVICE BASIC DATA STRUCTURE to the Class,,,,,,,,,,,,,,,,,
CDISC.ADaMIG.AD0159,AD0159,159,1.3,2,BASIC DATA STRUCTURE; MEDICAL DEVICE BASIC DATA STRUCTURE,,,AWTARGET,,,,,,AWTDIFF is populated and AWTARGET is not populated,AWTARGET is not populated,AWTDIFF is populated,,,,,,,,,,,ADaMIG v1.3; ADaMIG-MD v1.0,3.3.5; 3.1,Table 3.3.5.2,"ADaMIG v1.3, Section 3.3.5, Table 3.3.5.2: Absolute difference between ADY or ARELTM and AWTARGET.

ADaMIG-MD v1.0, Section 3.1: The MDBDS supports analysis needs by adding SPDEVID as a required key variable and USUBJID as a conditionally required variable. See the BDS class for further details.",,Added MEDICAL DEVICE BASIC DATA STRUCTURE to the Class,,,,,,,,,,,,,,,,,
CDISC.ADaMIG.AD0160,AD0160,160,1.1,1,BASIC DATA STRUCTURE,,,AWU,,,,,,AWU is present and both AWLO and AWHI are not present,AWLO and AWHI are not present,AWU is present,,,,,,,,,,,ADaMIG v1.1,3.3.5,Table 3.3.5.2,"ADaMIG v1.1, Section 3.3.5, Table 3.3.5.2: Unit used for AWLO and AWHI.",,,,,,,,,,,,,,,,,,,
CDISC.ADaMIG.AD0163,AD0163,163,1.3,2,BASIC DATA STRUCTURE; MEDICAL DEVICE BASIC DATA STRUCTURE,,,BTOXGR,,,,,,BTOXGR is present and ATOXGR is not present,ATOXGR is not present,BTOXGR is present,,,,,,,,,,,ADaMIG v1.3; ADaMIG-MD v1.0,3.3.7; 3.1,Table 3.3.7.1,"ADaMIG v1.3, Section 3.3.7, Table 3.3.7.1: ATOXGR of the baseline record identified by ABLFL.

ADaMIG-MD v1.0, Section 3.1: The MDBDS supports analysis needs by adding SPDEVID as a required key variable and USUBJID as a conditionally required variable. See the BDS class for further details.",,Added MEDICAL DEVICE BASIC DATA STRUCTURE to the Class,,,,,,,,,,,,,,,,,
CDISC.ADaMIG.AD0164,AD0164,164,1.3,2,BASIC DATA STRUCTURE; MEDICAL DEVICE BASIC DATA STRUCTURE,,,BTOXGR,,,,,,BTOXGR is present and ABLFL is not present,ABLFL is not present,BTOXGR is present,,,,,,,,,,,ADaMIG v1.3; ADaMIG-MD v1.0,3.3.7; 3.1,Table 3.3.7.1,"ADaMIG v1.3, Section 3.3.7, Table 3.3.7.1: ATOXGR of the baseline record identified by ABLFL.

ADaMIG-MD v1.0, Section 3.1: The MDBDS supports analysis needs by adding SPDEVID as a required key variable and USUBJID as a conditionally required variable. See the BDS class for further details.",,Added MEDICAL DEVICE BASIC DATA STRUCTURE to the Class,,,,,,,,,,,,,,,,,
,AD0165,165,1.2,1,BASIC DATA STRUCTURE,,,BTOXGR,,,,,,"BASETYPE is present, BTOXGR is populated, and BTOXGR is not equal to ATOXGR where ABLFL is equal to Y for a given value of PARAMCD and BASETYPE",BTOXGR is not equal to ATOXGR where ABLFL is equal to Y for a given value of PARAMCD and BASETYPE,BASETYPE is present and BTOXGR is populated,,,,,,,,,,,ADaMIG v1.2,3.3.7,Table 3.3.7.1,"ADaMIG v1.2, Section 3.3.7, Table 3.3.7.1: ATOXGR of the baseline record identified by ABLFL.",,,,,,,,,,,,,,,,,,,
CDISC.ADaMIG.AD0166,AD0166,166,1.3,2,BASIC DATA STRUCTURE; MEDICAL DEVICE BASIC DATA STRUCTURE,,,BNRIND,,,,,,BNRIND is present and ANRIND is not present,ANRIND is not present,BNRIND is present,,,,,,,,,,,ADaMIG v1.3; ADaMIG-MD v1.0,3.3.7; 3.1,Table 3.3.7.1,"ADaMIG v1.3, Section 3.3.7, Table 3.3.7.1: ANRIND of the baseline record identified by ABLFL.

ADaMIG-MD v1.0, Section 3.1: The MDBDS supports analysis needs by adding SPDEVID as a required key variable and USUBJID as a conditionally required variable. See the BDS class for further details.",,Added MEDICAL DEVICE BASIC DATA STRUCTURE to the Class,,,,,,,,,,,,,,,,,
CDISC.ADaMIG.AD0167,AD0167,167,1.3,2,BASIC DATA STRUCTURE; MEDICAL DEVICE BASIC DATA STRUCTURE,,,BNRIND,,,,,,BNRIND is present and ABLFL is not present,ANRIND is not present,BNRIND is present,,,,,,,,,,,ADaMIG v1.3; ADaMIG-MD v1.0,3.3.7; 3.1,Table 3.3.7.1,"ADaMIG v1.3, Section 3.3.7, Table 3.3.7.1: ANRIND of the baseline record identified by ABLFL.

ADaMIG-MD v1.0, Section 3.1: The MDBDS supports analysis needs by adding SPDEVID as a required key variable and USUBJID as a conditionally required variable. See the BDS class for further details.",,Added MEDICAL DEVICE BASIC DATA STRUCTURE to the Class,,,,,,,,,,,,,,,,,
,AD0168,168,1.2,1,BASIC DATA STRUCTURE,,,BNRIND,,,,,,"BASETYPE is present, BNRIND is populated, and BNRIND is not equal to ANRIND where ABLFL is equal to Y for a given value of PARAMCD and BASETYPE",BNRIND is not equal to ANRIND where ABLFL is equal to Y for a given value of PARAMCD and BASETYPE,BASETYPE is present and BNRIND is populated,,,,,,,,,,,ADaMIG v1.2,3.3.7,Table 3.3.7.1,"ADaMIG v1.2, Section 3.3.7, Table 3.3.7.1: ANRIND of the baseline record identified by ABLFL.",,,,,,,,,,,,,,,,,,,
CDISC.ADaMIG.AD0169,AD0169,169,1.3,2,BASIC DATA STRUCTURE; MEDICAL DEVICE BASIC DATA STRUCTURE,,,CNSR,,,,,,The value of CNSR is not a positive integer or 0,The value of CNSR is not a positive integer or 0,CNSR is populated,,,,,,,,,,,ADaMIG v1.3; ADaMIG-MD v1.0,3.3.6; 3.1,Table 3.3.6.1,"ADaMIG v1.3, Section 3.3.6, Table 3.3.6.1: It is strongly recommended to use 0 as an event indicator and positive integers as censoring indicators.

ADaMIG-MD v1.0, Section 3.1: The MDBDS supports analysis needs by adding SPDEVID as a required key variable and USUBJID as a conditionally required variable. See the BDS class for further details.",,Added MEDICAL DEVICE BASIC DATA STRUCTURE to the Class,,,,,,,,,,,,,,,,,
CDISC.ADaMIG.AD0176,AD0176,176,1.1,1,BASIC DATA STRUCTURE,,,ABLFL,,,,,,ABLFL is not equal to Y or null,ABLFL is not equal to Y or null,,,,,,,,,,,,ADaMIG v1.1,3.3.8,Table 3.3.8.1,"ADaMIG v1.1, Section 3.3.8, Table 3.3.8.1: Codelist/Controlled Terms: Y {Y,NULL}",,,,,,,,,,,,,,,,,,,
CDISC.ADaMIG.AD0178,AD0178,178,1.1,1,BASIC DATA STRUCTURE; OCCURRENCE DATA STRUCTURE,,,"ANLzzFL where zz is an integer [01-99, zero-padded]",,,,,,ANLzzFL is not equal to Y or null where zz is a zero-padded two-digit integer [01-99],ANLzzFL is not equal to Y or null,,,,,,,,,,,,ADaMIG v1.1,3.3.8,Table 3.3.8.1,"ADaMIG v1.1, Section 3.3.8, Table 3.3.8.1: Codelist/Controlled Terms: Y {Y,NULL}",,,,,,,,,,,,,,,,,,,
,AD0180,180,1.0,1,BASIC DATA STRUCTURE,,,SRCDOM,,,,,,SRCDOM has a value that is not an SDTM domain name or null,SRCDOM has a value that is not an SDTM domain name or null,SRCDOM is present,,,,,,,,,,,ADaMIG v1.0,3.2.8,Table 3.2.8.1,"ADaMIG v1.0, Section 3.2.8, Table 3.2.8.1: The 2-character identifier of the SDTM domain that relates to AVAL or AVALC.",,,,,,,,,,,,,,,,,,,
,AD0181,181,1.3,1,BASIC DATA STRUCTURE,,,BASE,,,,,,"BASETYPE is not present, BASE is populated, and BASE is not equal to AVAL where ABLFL is equal to Y for a given value of PARAMCD for a subject",BASE is not equal to AVAL where ABLFL is equal to Y for a given value of PARAMCD for a subject,BASETYPE is not present and BASE is populated,,,,,,,,,,,ADaMIG v1.3,3.3.4.1,Table 3.3.4.1.1,"ADaMIG v1.3, Section 3.3.4.1, Table 3.3.4.1.1: BASE contains the value of AVAL copied from a record within the parameter on which ABLFL = ""Y"".",,,,,,,,,,,,,,,,,,,
,AD0182,182,1.3,1,BASIC DATA STRUCTURE,,,BTOXGR,,,,,,"BASETYPE is not present, BTOXGR is populated, and BTOXGR is not equal to ATOXGR where ABLFL is equal to Y for a given value of PARAMCD for a subject",BTOXGR is not equal to ATOXGR where ABLFL is equal to Y for a given value of PARAMCD for a subject,BASETYPE is not present and BTOXGR is populated,,,,,,,,,,,ADaMIG v1.3,3.3.7,Table 3.3.7.1,"ADaMIG v1.3, Section 3.3.7, Table 3.3.7.1: ATOXGR of the baseline record identified by ABLFL.",,,,,,,,,,,,,,,,,,,
,AD0183,183,1.3,1,BASIC DATA STRUCTURE,,,BNRIND,,,,,,"BASETYPE is not present, BNRIND is populated, and BNRIND is not equal to ANRIND where ABLFL is equal to Y for a given value of PARAMCD for a subject",BNRIND is not equal to ANRIND where ABLFL is equal to Y for a given value of PARAMCD for a subject,BASETYPE is not present and BNRIND is populated,,,,,,,,,,,ADaMIG v1.3,3.3.7,Table 3.3.7.1,"ADaMIG v1.3, Section 3.3.7, Table 3.3.7.1: ANRIND of the baseline record identified by ABLFL.",,,,,,,,,,,,,,,,,,,
CDISC.ADaMIG.AD0194,AD0194,194,1.3,2,BASIC DATA STRUCTURE; MEDICAL DEVICE BASIC DATA STRUCTURE,,,PARAM,,,,,,PARAM is not present,PARAM is not present,,,,,,,,,,,,ADaMIG v1.3; ADaMIG-MD v1.0,3.3.4.1; 3.1,Table 3.3.4.1.1,"ADaMIG v1.3, Section 3.3.4.1, Table 3.3.4.1.1: PARAM has Core=Req and PARAM must be present and populated on every record in a BDS dataset.

ADaMIG-MD v1.0, Section 3.1: The MDBDS supports analysis needs by adding SPDEVID as a required key variable and USUBJID as a conditionally required variable. See the BDS class for further details.",,Added MEDICAL DEVICE BASIC DATA STRUCTURE to the Class,,,,,,,,,,,,,,,,,
CDISC.ADaMIG.AD0195,AD0195,195,1.3,2,BASIC DATA STRUCTURE; MEDICAL DEVICE BASIC DATA STRUCTURE,,,PARAMCD,,,,,,PARAMCD is not present,PARAMCD is not present,,,,,,,,,,,,ADaMIG v1.3; ADaMIG-MD v1.0,3.3.4.1; 3.1,Table 3.3.4.1.1,"ADaMIG v1.3, Section 3.3.4.1, Table 3.3.4.1.1: PARAMCD has Core=Req and PARAMCD must be present and populated on every record in a BDS dataset.

ADaMIG-MD v1.0, Section 3.1: The MDBDS supports analysis needs by adding SPDEVID as a required key variable and USUBJID as a conditionally required variable. See the BDS class for further details.",,Added MEDICAL DEVICE BASIC DATA STRUCTURE to the Class,,,,,,,,,,,,,,,,,
CDISC.ADaMIG.AD0196,AD0196,196,1.3,2,BASIC DATA STRUCTURE; MEDICAL DEVICE BASIC DATA STRUCTURE,,,PARAM,,,,,,PARAM is not populated,PARAM is not populated,,,,,,,,,,,,ADaMIG v1.3; ADaMIG-MD v1.0,3.3.4.1; 3.1,Table 3.3.4.1.1,"ADaMIG v1.3, Section 3.3.4.1, Table 3.3.4.1.1: PARAM has Core=Req and PARAM must be present and populated on every record in a BDS dataset.

ADaMIG-MD v1.0, Section 3.1: The MDBDS supports analysis needs by adding SPDEVID as a required key variable and USUBJID as a conditionally required variable. See the BDS class for further details.",,Added MEDICAL DEVICE BASIC DATA STRUCTURE to the Class,,,,,,,,,,,,,,,,,
CDISC.ADaMIG.AD0197,AD0197,197,1.3,2,BASIC DATA STRUCTURE; MEDICAL DEVICE BASIC DATA STRUCTURE,,,PARAMCD,,,,,,PARAMCD is not populated,PARAMCD is not populated,,,,,,,,,,,,ADaMIG v1.3; ADaMIG-MD v1.0,3.3.4.1; 3.1,Table 3.3.4.1.1,"ADaMIG v1.3, Section 3.3.4.1, Table 3.3.4.1.1: PARAMCD has Core=Req and PARAMCD must be present and populated on every record in a BDS dataset.

ADaMIG-MD v1.0, Section 3.1: The MDBDS supports analysis needs by adding SPDEVID as a required key variable and USUBJID as a conditionally required variable. See the BDS class for further details.",,Added MEDICAL DEVICE BASIC DATA STRUCTURE to the Class,,,,,,,,,,,,,,,,,
CDISC.ADaMIG.AD0198,AD0198,198,1.3,2,BASIC DATA STRUCTURE; MEDICAL DEVICE BASIC DATA STRUCTURE,,,,,,,,,AVAL is not present and AVALC is not present,AVAL is not present and AVALC is not present,,,,,,,,,,,,ADaMIG v1.3; ADaMIG-MD v1.0,3.3.4.1; 3.1,Table 3.3.4.1.1,"ADaMIG v1.3, Section 3.3.4.1, Table 3.3.4.1.1: AVALC is required if AVAL is not present, since either AVAL or AVALC must be present in the dataset.

ADaMIG-MD v1.0, Section 3.1: The MDBDS supports analysis needs by adding SPDEVID as a required key variable and USUBJID as a conditionally required variable. See the BDS class for further details.",,Added MEDICAL DEVICE BASIC DATA STRUCTURE to the Class,,,,,,,,,,,,,,,,,
,AD0199,199,1.3,1,ALL,,,ALL,,,,,,A variable is present in ADaM with the same name as a variable present in SDTM but the variables do not have identical data types,A variable in SDTM and a variable in ADaM with the same name do not have identical data types,A variable is present in ADaM with the same name as a variable present in SDTM,,,,,,,,,,,ADaMIG v1.3,3.1.1,3,"ADaMIG v1.3, Section 3.1.1, Item 3: Any variable in an ADaM dataset whose name is the same as an SDTM variable must be a copy of the SDTM variable, and its label, meaning, and values must not be modified.",,,,,,,,,,,,,,,,,,,
,AD0200,200,1.3,1,ALL,,,ALL,,,,,,A variable is present in ADaM with the same name as a variable defined in the ADaM IG but the variables do not have identical data types,A variable in the ADaM IG and a variable in ADaM with the same name do not have identical data types,A variable is present in ADaM with the same name as a variable present in ADaM IG,,,,,,,,,,,ADaMIG v1.3,3,,"ADaMIG v1.3, Section 3: This section defines the required characteristics of standard variables (columns) that are frequently needed in ADaM datasets. The ADaM standard requires that these variable names be used when a variable that contains the content defined in this section, Standard ADaM Variables, is included in any ADaM dataset, regardless of dataset class. In addition, the ""Type"" column specifies whether the variable being described is character or numeric.",,,,,,,,,,,,,,,,,,,
,AD0201,201,1.3,2,BASIC DATA STRUCTURE; MEDICAL DEVICE BASIC DATA STRUCTURE,,,"TRTAGy where y is an integer [1-99, not zero-padded]",,,,,,TRTAGyN is present and TRTAGy is not present,TRTAGy is not present,TRTAGyN is present,,,,,,,,,,,ADaMIG v1.3; ADaMIG-MD v1.0,3.3.2; 3.1,Table 3.3.2.1,"ADaMIG v1.3, Section 3.3.2, Table 3.3.2.1: Numeric representation of TRTAGy.

ADaMIG-MD v1.0, Section 3.1: The MDBDS supports analysis needs by adding SPDEVID as a required key variable and USUBJID as a conditionally required variable. See the BDS class for further details.",,Added MEDICAL DEVICE BASIC DATA STRUCTURE to the Class,,,,,,,,,,,,,,,,,
CDISC.ADaMIG.AD0204,AD0204,204,1.3,1,SUBJECT LEVEL ANALYSIS DATASET,,,AGE,,,,,,The value of ADSL.USUBJID is equal to the value of DM.USUBJID and ADSL.AGE is not equal to DM.AGE,ADSL.AGE is not equal to DM.AGE,The value of ADSL.USUBJID is equal to the value of DM.USUBJID,,,,,,,,,,,ADaMIG v1.3,3.2,Table 3.2.2,"ADaMIG v1.3, Section 3.2, Table 3.2.2: DM.AGE",,,,,,,,,,,,,,,,,,,
,AD0205,205,1.3,1,SUBJECT LEVEL ANALYSIS DATASET,,,AGEU,,,,,,The value of ADSL.USUBJID is equal to the value of DM.USUBJID and ADSL.AGEU is not equal to DM.AGEU,ADSL.AGEU is not equal to DM.AGEU,The value of ADSL.USUBJID is equal to the value of DM.USUBJID,,,,,,,,,,,ADaMIG v1.3,3.2,Table 3.2.2,"ADaMIG v1.3, Section 3.2, Table 3.2.2: DM.AGEU",,,,,,,,,,,,,,,,,,,
,AD0206,206,1.3,1,SUBJECT LEVEL ANALYSIS DATASET,,,SEX,,,,,,The value of ADSL.USUBJID is equal to the value of DM.USUBJID and ADSL.SEX is not equal to DM.SEX,ADSL.SEX is not equal to DM.SEX,The value of ADSL.USUBJID is equal to the value of DM.USUBJID,,,,,,,,,,,ADaMIG v1.3,3.2,Table 3.2.2,"ADaMIG v1.3, Section 3.2, Table 3.2.2:  DM.SEX.",,,,,,,,,,,,,,,,,,,
,AD0207,207,1.3,1,SUBJECT LEVEL ANALYSIS DATASET,,,RACE,,,,,,The value of ADSL.USUBJID is equal to the value of DM.USUBJID and ADSL.RACE is not equal to DM.RACE,ADSL.RACE is not equal to DM.RACE,The value of ADSL.USUBJID is equal to the value of DM.USUBJID,,,,,,,,,,,ADaMIG v1.3,3.2,Table 3.2.2,"ADaMIG v1.3, Section 3.2, Table 3.2.2: DM.RACE.",,,,,,,,,,,,,,,,,,,
,AD0208,208,1.3,1,SUBJECT LEVEL ANALYSIS DATASET,,,SUBJID,,,,,,The value of ADSL.USUBJID is equal to the value of DM.USUBJID and ADSL.SUBJID is not equal to DM.SUBJID,ADSL.SUBJID is not equal to DM.SUBJID,The value of ADSL.USUBJID is equal to the value of DM.USUBJID,,,,,,,,,,,ADaMIG v1.3,3.2,Table 3.2.1,"ADaMIG v1.3, Section 3.2, Table 3.2.1: DM.SUBJID",,,,,,,,,,,,,,,,,,,
,AD0209,209,1.3,1,SUBJECT LEVEL ANALYSIS DATASET,,,SITEID,,,,,,The value of ADSL.USUBJID is equal to the value of DM.USUBJID and ADSL.SITEID is not equal to DM.SITEID,ADSL.SITEID is not equal to DM.SITEID,The value of ADSL.USUBJID is equal to the value of DM.USUBJID,,,,,,,,,,,ADaMIG v1.3,3.2,Table 3.2.1,"ADaMIG v1.3, Section 3.2, Table 3.2.1: DM.SITEID",,,,,,,,,,,,,,,,,,,
,AD0210,210,1.3,1,SUBJECT LEVEL ANALYSIS DATASET,,,ARM,,,,,,The value of ADSL.USUBJID is equal to the value of DM.USUBJID and ADSL.ARM is not equal to DM.ARM,ADSL.ARM is not equal to DM.ARM,The value of ADSL.USUBJID is equal to the value of DM.USUBJID,,,,,,,,,,,ADaMIG v1.3,3.2,Table 3.2.4,"ADaMIG v1.3, Section 3.2, Table 3.2.4: DM.ARM",,,,,,,,,,,,,,,,,,,
CDISC.ADaMIG.AD0211,AD0211,211,1.3,2,BASIC DATA STRUCTURE; MEDICAL DEVICE BASIC DATA STRUCTURE,,,ABLFN,,,,,,ABLFN is not equal to 1 or null,ABLFN is not equal to 1 or null,,,,,,,,,,,,ADaMIG v1.3; ADaMIG-MD v1.0,3.3.8; 3.1,Table 3.3.8.1,"ADaMIG v1.3, Section 3.3.8, Table 3.3.8.1: Codelist/Controlled Terms: 1 {1,NULL}

ADaMIG-MD v1.0, Section 3.1: The MDBDS supports analysis needs by adding SPDEVID as a required key variable and USUBJID as a conditionally required variable. See the BDS class for further details.",,Added MEDICAL DEVICE BASIC DATA STRUCTURE to the Class,,,,,,,,,,,,,,,,,
,AD0212,212,1.3,2,BASIC DATA STRUCTURE; MEDICAL DEVICE BASIC DATA STRUCTURE,,,"ANLzzFN where zz is an integer [01-99, zero-padded]",,,,,,ANLzzFN is not equal to 1 or null where zz is a zero-padded two-digit integer [01-99],ANLzzFN is not equal to 1 or null,,,,,,,,,,,,ADaMIG v1.3; ADaMIG-MD v1.0,3.3.8; 3.1,Table 3.3.8.1,"ADaMIG v1.3, Section 3.3.8, Table 3.3.8.1: Codelist/Controlled Terms: 1 {1,NULL}

ADaMIG-MD v1.0, Section 3.1: The MDBDS supports analysis needs by adding SPDEVID as a required key variable and USUBJID as a conditionally required variable. See the BDS class for further details.",,Added MEDICAL DEVICE BASIC DATA STRUCTURE to the Class,,,,,,,,,,,,,,,,,
,AD0221,221,1.0,1,BASIC DATA STRUCTURE,,,"AVALCATy where y is an integer [1-9, not zero-padded]",,,,,,"Within a given value of PARAMCD, there is more than one value of AVALCATy for a given value of AVAL",There is more than one value of AVALCATy for a given value of AVAL,Within a given value of PARAMCD,,,,,,,,,,,ADaMIG v1.0,3.2.4,Table 3.2.4.1,"ADaMIG v1.0, Section 3.2.4, Table 3.2.4.1: A categorical representation of AVAL and/or AVALC",,,,,,,,,,,,,,,,,,,
,AD0222,222,1.0,1,BASIC DATA STRUCTURE,,,"BASECATy where y is an integer [1-9, not zero-padded]",,,,,,"Within a given value of PARAMCD, there is more than one value of BASECATy for a given value of BASE and y",There is more than one value of BASECATy for a given value of AVAL,Within a given value of PARAMCD,,,,,,,,,,,ADaMIG v1.0,3.2.4,Table 3.2.4.1,"ADaMIG v1.0, Section 3.2.4, Table 3.2.4.1: A categorical representation of BASE",,,,,,,,,,,,,,,,,,,
,AD0223,223,1.3,1,BASIC DATA STRUCTURE,,,CHG,,,,,,"Within a given value of PARAMCD for a subject, CHG is populated and is not equal to AVAL - BASE",CHG is not equal to AVAL - BASE,CHG is populated.,,,,,,,,,,,ADaMIG v1.3,3.3.4.1,Table 3.3.4.1.1,"ADaMIG v1.3, Section 3.3.4.1, Table 3.3.4.1.1: Equal to AVAL-BASE",,,,,,,,,,,,,,,,,,,
,AD0224,224,1.0,1,BASIC DATA STRUCTURE,,,"CHGCATy where y is an integer [1-9, not zero-padded]",,,,,,"Within a given value of PARAMCD, there is more than one value of CHGCATy for a given value of CHG and y",There is more than one value of CHGCATy for a given value of CHG,Within a given value of PARAMCD,,,,,,,,,,,ADaMIG v1.0,3.2.4,Table 3.2.4.1,"ADaMIG v1.0, Section 3.2.4, Table 3.2.4.1: A categorical representation of CHG",,,,,,,,,,,,,,,,,,,
,AD0225,225,1.3,1,BASIC DATA STRUCTURE,,,PCHG,,,,,,"Within a given value of PARAMCD for a subject, PCHG is populated and is not equal to ((AVAL - BASE)/BASE)*100",PCHG is not equal to ((AVAL - BASE)/BASE)*100,PCHG is populated.,,,,,,,,,,,ADaMIG v1.3,3.3.4.1,Table 3.3.4.1.1,"ADaMIG v1.3, Section 3.3.4.1, Table 3.3.4.1.1: Equal to ((AVAL-BASE)/BASE)*100",,,,,,,,,,,,,,,,,,,
,AD0226,226,1.0,1,BASIC DATA STRUCTURE,,,"PCHGCATy where y is an integer [1-9, not zero-padded]",,,,,,"Within a given value of PARAMCD, there is more than one value of PCHGCATy for a given value of PCHG and y",There is more than one value of PCHGCATy for a given value of PCHG,Within a given value of PARAMCD,,,,,,,,,,,ADaMIG v1.0,3.2.4,Table 3.2.4.1,"ADaMIG v1.0, Section 3.2.4, Table 3.2.4.1: A categorical representation of PCHG",,,,,,,,,,,,,,,,,,,
,AD0227,227,1.0,1,SUBJECT LEVEL ANALYSIS DATASET,,,TRTSEQP,,,,,,There is more than one value of TRTSEQP for a given value of TRTSEQPN,There is more than one value of TRTSEQP for a given value of TRTSEQPN,,,,,,,,,,,,ADaMIG v1.0,3.1,Table 3.1.1,"ADaMIG v1.0, Section 3.1, Table 3.1.1: One-to-one map to TRTSEQP",,,,,,,,,,,,,,,,,,,
,AD0228,228,1.0,1,SUBJECT LEVEL ANALYSIS DATASET,,,TRTSEQPN,,,,,,There is more than one value of TRTSEQPN for a given value of TRTSEQP,There is more than one value of TRTSEQPN for a given value of TRTSEQP,,,,,,,,,,,,ADaMIG v1.0,3.1,Table 3.1.1,"ADaMIG v1.0, Section 3.1, Table 3.1.1: One-to-one map to TRTSEQP",,,,,,,,,,,,,,,,,,,
,AD0229,229,1.0,1,SUBJECT LEVEL ANALYSIS DATASET,,,TRTSEQA,,,,,,There is more than one value of TRTSEQA for a given value of TRTSEQAN,There is more than one value of TRTSEQA for a given value of TRTSEQAN,,,,,,,,,,,,ADaMIG v1.0,3.1,Table 3.1.1,"ADaMIG v1.0, Section 3.1, Table 3.1.1: One-to-one map to TRTSEQA",,,,,,,,,,,,,,,,,,,
,AD0230,230,1.0,1,SUBJECT LEVEL ANALYSIS DATASET,,,TRTSEQAN,,,,,,There is more than one value of TRTSEQAN for a given value of TRTSEQA,There is more than one value of TRTSEQAN for a given value of TRTSEQA,,,,,,,,,,,,ADaMIG v1.0,3.1,Table 3.1.1,"ADaMIG v1.0, Section 3.1, Table 3.1.1: One-to-one map to TRTSEQA",,,,,,,,,,,,,,,,,,,
,AD0231,231,1.0,1,SUBJECT LEVEL ANALYSIS DATASET,,,"TRxxPGy where xx is an integer [01-99, zero-padded] and y is an integer [1-9, not zero-padded]",,,,,,"Within a given value of TRTxxP, there is more than one value of TRxxPGy, where xx is an integer [01-99, zero-padded] and y is a single-digit integer [1-9]","Within a given value of TRTxxP, there is more than one value of TRxxPGy",,,,,,,,,,,,ADaMIG v1.0,3.1,Table 3.1.1,"ADaMIG v1.0, Section 3.1, Table 3.1.1: TRxxPGy: Planned pooled treatment y for period xx. Useful when planned treatments (TRTxxP) in the specified period xx are pooled together for analysis according to pooling algorithm y. For example when in period 2 the first pooling algorithm dictates that all doses of Drug A (TR02PG1=""All doses of Drug A"") are pooled together for comparison to all doses of Drug B (TR02PG1=""All doses of Drug B""). Each value of TRTxxP is pooled within at most one value of TRxxPGy.",,,,,,,,,,,,,,,,,,,
,AD0232,232,1.0,1,SUBJECT LEVEL ANALYSIS DATASET,,,"TRxxPGy where xx is an integer [01-99, zero-padded] and y is an integer [1-9, not zero-padded]",,,,,,"There is more than one value of TRxxPGy for a given value of TRxxPGyN, where xx is an integer [01-99, zero-padded] and y is a single-digit integer [1-9]",There is more than one value of TRxxPGy for a given value of TRxxPGyN,,,,,,,,,,,,ADaMIG v1.0,3.1,Table 3.1.1,"ADaMIG v1.0, Section 3.1, Table 3.1.1: TRxxPGyN: The numeric code for TRxxPGy. One-to-one map to TRxxPGy.",,,,,,,,,,,,,,,,,,,
,AD0233,233,1.0,1,SUBJECT LEVEL ANALYSIS DATASET,,,"TRxxPGyN where xx is an integer [01-99, zero-padded] and y is an integer [1-9, not zero-padded]",,,,,,"There is more than one value of TRxxPGyN for a given value of TRxxPGy, where xx is an integer [01-99, zero-padded] and y is a single-digit integer [1-9]",There is more than one value of TRxxPGyN for a given value of TRxxPGy,,,,,,,,,,,,ADaMIG v1.0,3.1,Table 3.1.1,"ADaMIG v1.0, Section 3.1, Table 3.1.1: TRxxPGyN: The numeric code for TRxxPGy. One-to-one map to TRxxPGy.",,,,,,,,,,,,,,,,,,,
,AD0234,234,1.0,1,SUBJECT LEVEL ANALYSIS DATASET,,,"TRxxAGy where xx is an integer [01-99, zero-padded] and y is an integer [1-9, not zero-padded]",,,,,,"Within a given value of TRTxxA, there is more than one value of TRxxAGy, where xx is an integer [01-99, zero-padded] and y is a single-digit integer [1-9]","Within a given value of TRTxxA, there is more than one value of TRxxAGy",,,,,,,,,,,,ADaMIG v1.0,3.1,Table 3.1.1,"ADaMIG v1.0, Section 3.1, Table 3.1.1: TRxxAGy: Actual pooled treatment y for period xx. Required when TRxxPGy is present and TRTxxA is present.",,,,,,,,,,,,,,,,,,,
,AD0235,235,1.0,1,SUBJECT LEVEL ANALYSIS DATASET,,,"TRxxAGy where xx is an integer [01-99, zero-padded] and y is an integer [1-9, not zero-padded]",,,,,,"There is more than one value of TRxxAGy for a given value of TRxxAGyN, where xx is an integer [01-99, zero-padded] and y is a single-digit integer [1-9]",There is more than one value of TRxxAGy for a given value of TRxxAGyN,,,,,,,,,,,,ADaMIG v1.0,3.1,Table 3.1.1,"ADaMIG v1.0, Section 3.1, Table 3.1.1: TRxxAGyN: The numeric code for TRxxAGy. One-to-one map to TRxxAGy",,,,,,,,,,,,,,,,,,,
,AD0236,236,1.0,1,SUBJECT LEVEL ANALYSIS DATASET,,,"TRxxAGyN where xx is an integer [01-99, zero-padded] and y is an integer [1-9, not zero-padded]",,,,,,"There is more than one value of TRxxAGyN for a given value of TRxxAGy, where xx is an integer [01-99, zero-padded] and y is a single-digit integer [1-9]",There is more than one value of TRxxAGyN for a given value of TRxxAGy,,,,,,,,,,,,ADaMIG v1.0,3.1,Table 3.1.1,"ADaMIG v1.0, Section 3.1, Table 3.1.1: TRxxAGyN: The numeric code for TRxxAGy. One-to-one map to TRxxAGy",,,,,,,,,,,,,,,,,,,
,AD0237,237,1.0,1,BASIC DATA STRUCTURE,,,"TRTPGy where y is an integer [1-9, not zero-padded]",,,,,,"There is more than one value of TRTPGy for a given value of TRTPGyN, where y is a single-digit integer [1-9]",There is more than one value of TRTPGy for a given value of TRTPGyN,,,,,,,,,,,,ADaMIG v1.0,3.2.2,Table 3.2.2.1,"ADaMIG v1.0, Section 3.2.2, Table 3.2.2.1: TRTPGyN: The numeric code for TRTPGy. One-to-one map to TRTPGy.",,,,,,,,,,,,,,,,,,,
,AD0238,238,1.0,1,BASIC DATA STRUCTURE,,,"TRTPGyN where y is an integer [1-9, not zero-padded]",,,,,,"There is more than one value of TRTPGyN for a given value of TRTPGy, where y is a single-digit integer [1-9]",There is more than one value of TRTPGyN for a given value of TRTPGy,,,,,,,,,,,,ADaMIG v1.0,3.2.2,Table 3.2.2.1,"ADaMIG v1.0, Section 3.2.2, Table 3.2.2.1: TRTPGyN: The numeric code for TRTPGy. One-to-one map to TRTPGy.",,,,,,,,,,,,,,,,,,,
,AD0239,239,1.0,1,BASIC DATA STRUCTURE,,,"TRTPGy where y is an integer [1-9, not zero-padded]",,,,,,"TRTPGy is present and TRTA is present but TRTAGy is not present, where y is a single-digit integer [1-9]",TRTAGy is not present,TRTA is present,,,,,,,,,,,ADaMIG v1.0,3.3.2,Table 3.2.2.1,"ADaMIG v1.0, Section 3.3.2, Table 3.2.2.1: TRTAGy: Actual pooled treatment y. ""y"" represents an integer [1-9] corresponding to a particular pooling scheme. Required when TRTPGy is present and TRTA is present. May vary by record within a subject.",,,,,,,,,,,,,,,,,,,
,AD0240,240,1.0,1,BASIC DATA STRUCTURE,,,"TRTAGy where y is an integer [1-9, not zero-padded]",,,,,,"There is more than one value of TRTAGy for a given value of TRTAGyN, where y is a single-digit integer [1-9]",There is more than one value of TRTAGy for a given value of TRTAGyN,,,,,,,,,,,,ADaMIG v1.0,3.2.2,Table 3.2.2.1,"ADaMIG v1.0, Section 3.2.2, Table 3.2.2.1: TRTAGyN: The numeric code for TRTAGy. One-to-one map to TRTAGy.",,,,,,,,,,,,,,,,,,,
,AD0241,241,1.0,1,BASIC DATA STRUCTURE,,,"TRTAGyN where y is an integer [1-9, not zero-padded]",,,,,,"There is more than one value of TRTAGyN for a given value of TRTAGy, where y is a single-digit integer [1-9]",There is more than one value of TRTAGyN for a given value of TRTAGy,,,,,,,,,,,,ADaMIG v1.0,3.2.2,Table 3.2.2.1,"ADaMIG v1.0, Section 3.2.2, Table 3.2.2.1: TRTAGyN: The numeric code for TRTAGy. One-to-one map to TRTAGy.",,,,,,,,,,,,,,,,,,,
,AD0242,242,1.0,1,SUBJECT LEVEL ANALYSIS DATASET,,,"TRTxxAN where xx is an integer [01-99, zero-padded]",,,,,,"There is more than one value of TRTxxAN for a given value of TRTxxA, where xx is an integer [01-99, zero-padded]",There is more than one value of TRTxxAN for a given value of TRTxxA,,,,,,,,,,,,ADaMIG v1.0,3.1,Table 3.1.1,"ADaMIG v1.0, Section 3.1, Table 3.1.1: TRTxxAN: The numeric code variable for TRTxxA. One-to-one map to TRTxxA.",,,,,,,,,,,,,,,,,,,
,AD0243,243,1.0,1,SUBJECT LEVEL ANALYSIS DATASET,,,"TRTxxA where xx is an integer [01-99, zero-padded]",,,,,,"There is more than one value of TRTxxA for a given value of TRTxxAN, where xx is an integer [01-99, zero-padded]",There is more than one value of TRTxxA for a given value of TRTxxAN,,,,,,,,,,,,ADaMIG v1.0,3.1,Table 3.1.1,"ADaMIG v1.0, Section 3.1, Table 3.1.1: TRTxxAN: The numeric code variable for TRTxxA. One-to-one map to TRTxxA.",,,,,,,,,,,,,,,,,,,
CDISC.ADaMIG.AD0252b; CDISC.ADAMIG.252,AD0252,252,1.3,2,OCCURRENCE DATA STRUCTURE; MEDICAL DEVICE OCCURRENCE DATA STRUCTURE,,,AVAL; AVALC,,,,,,AVAL is present or AVALC is present,AVAL is present or AVALC is present,,,,,,,,,,,,OCCDS v1.0; OCCDS v1.1; ADaMIG-MD v1.0,1.1; 1.1.2.1; 3.1,1,"OCCDS v1.0, Section 1.1: There is no need for AVAL or AVALC. Occurrences are counted in analysis, and there are typically one or more records for each occurrence assessment.

OCCDS v1.1, Section 1.1.2.1, Item 1: There is no need for AVAL or AVALC. Occurrences are counted in analysis, and there are typically one or more records for each occurrence assessment.

ADaMIG-MD v1.0, Section 3.1: The MDOCCDS supports analysis needs by adding SPDEVID as a required identifier and allowing USUBJID be a conditionally required variable. See the OCCDS class for further details.",,Added MEDICAL DEVICE OCCURRENCE DATA STRUCTURE to the Class,,,,,,,,,,,,,,,,,
CDISC.ADaMIG.AD0254; CDISC.ADaMIG.AD0254b,AD0254,254,1.3,2,OCCURRENCE DATA STRUCTURE; MEDICAL DEVICE OCCURRENCE DATA STRUCTURE,,,PARAM,,,,,,PARAM is present,PARAM is present,,,,,,,,,,,,OCCDS v1.0; OCCDS v1.1; ADaMIG-MD v1.0,3.2; 3.2; 3.1,,"OCCDS v1.0, Section 3.2: There is no PARAM nor AVAL.

OCCDS v1.1, Section 3.2: There is no PARAM nor AVAL.

ADaMIG-MD v1.0, Section 3.1: The MDOCCDS supports analysis needs by adding SPDEVID as a required identifier and allowing USUBJID be a conditionally required variable. See the OCCDS class for further details.",,Added MEDICAL DEVICE OCCURRENCE DATA STRUCTURE to the Class,,,,,,,,,,,,,,,,,
,AD0256,256,1.3,1,ALL,,,,,,,,,The values of USUBJID are not present in ADSL,The values of USUBJID are not present in ADSL,USUBJID is present,,,,,,,,,,,Model v2.1; ADaMIG v1.3,6; 3.2,,"Model v2.1, Section 6: The structure of the Subject-Level Analysis Dataset (ADSL) is one record per subject, regardless of the type of clinical trial design. ADSL is used to provide the variables that describe attributes of a subject. This structure allows simple merging with any other dataset, including SDTM and analysis datasets.

ADaMIG v1.3, Section 3.2: Within a given study, USUBJID is the key variable that links ADSL to other datasets (both SDTM and ADaM).",,,,,,,,,,,,,,,,,,,
CDISC.ADAMIG.AD0261,AD0261,261,1.3,1,OCCURRENCE DATA STRUCTURE,ADVERSE EVENT,,,,,,,,AEDECOD is not present,AEDECOD is not present,,,,,,,,,,,,OCCDS v1.0; OCCDS v1.1,3.2.3; 3.2.3,Table 3.2.3.1; Table 3.2.3.1,"OCCDS v1.0, Section 3.2.3, Table 3.2.3.1: --DECOD has Core=Cond and the CDISC Notes state ""Required for Adverse Event data"".

OCCDS v1.1, Section 3.2.3, Table 3.2.3.1: --DECOD has Core=Req for SubClass=ADVERSE EVENT and the CDISC Notes state ""Required for Adverse Event data"".",,,,,,,,,,,,,,,,,,,
CDISC.ADAMIG.AD0262,AD0262,262,1.3,1,OCCURRENCE DATA STRUCTURE,ADVERSE EVENT,,,,,,,,AEBODSYS is not present,AEBODSYS is not present,,,,,,,,,,,,OCCDS v1.0; OCCDS v1.1,3.2.3; 3.2.3,Table 3.2.3.1; Table 3.2.3.1,"OCCDS v1.0, Section 3.2.3, Table 3.2.3.1: --BODSYS has Core=Cond and the CDISC Notes state ""Required for Adverse Event data"".

OCCDS v1.1, Section 3.2.3, Table 3.2.3.1: --BODSYS has Core=Req for SubClass=ADVERSE EVENT and the CDISC Notes state ""Required for Adverse Event data"".",,,,,,,,,,,,,,,,,,,
CDISC.ADaMIG.AD0268,AD0268,268,1.3,2,OCCURRENCE DATA STRUCTURE; MEDICAL DEVICE OCCURRENCE DATA STRUCTURE,,,ADURU,,,,,,ADURN is populated and ADURU is not populated,ADURU is not populated,ADURN is populated,,,,,,,,,,,OCCDS v1.0; OCCDS v1.1; ADaMIG-MD v1.0,3.2.4; 3.2.4; 3.1,Table 3.2.4.1; Table 3.2.4.1,"OCCDS v1.0, Section 3.2.4, Table 3.2.4.1: CDISC Notes for ADURU state: ""Conditional on whether ADURN is included and units are not included in the label of ADURN"".

OCCDS v1.1, Section 3.2.4, Table 3.2.4.1: CDISC Notes for ADURU state: ""Conditional on whether ADURN is included"".

ADaMIG-MD v1.0, Section 3.1: The MDOCCDS supports analysis needs by adding SPDEVID as a required identifier and allowing USUBJID be a conditionally required variable. See the OCCDS class for further details.",,Added MEDICAL DEVICE OCCURRENCE DATA STRUCTURE to the Class,,,,,,,,,,,,,,,,,
CDISC.ADaMIG.AD0269,AD0269,269,1.3,2,OCCURRENCE DATA STRUCTURE; MEDICAL DEVICE OCCURRENCE DATA STRUCTURE,,,TRTEMFL,,,,,,TRTEMFL is not equal to Y or null,TRTEMFL is not equal to Y or null,,,,,,,,,,,,OCCDS v1.0; OCCDS v1.1; ADaMIG-MD v1.0,3.2.5; 3.2.5; 3.1,Table 3.2.5.3; Table 3.2.5.3,"OCCDS v1.0, Section 3.2.5, Table 3.2.5.3: Code List / Controlled Terms have allowable values of: ""Y""

OCCDS v1.1, Section 3.2.5, Table 3.2.5.3: Code List / Controlled Terms have allowable values of: ""Y""

ADaMIG-MD v1.0, Section 3.1: The MDOCCDS supports analysis needs by adding SPDEVID as a required identifier and allowing USUBJID be a conditionally required variable. See the OCCDS class for further details.",,Added MEDICAL DEVICE OCCURRENCE DATA STRUCTURE to the Class,,,,,,,,,,,,,,,,,
CDISC.ADaMIG.AD0270,AD0270,270,1.3,2,OCCURRENCE DATA STRUCTURE; MEDICAL DEVICE OCCURRENCE DATA STRUCTURE,,,PREFL,,,,,,PREFL is not equal to Y or null,PREFL is not equal to Y or null,,,,,,,,,,,,OCCDS v1.0; OCCDS v1.1; ADaMIG-MD v1.0,3.2.5; 3.2.5; 3.1,Table 3.2.5.5; Table 3.2.5.5,"OCCDS v1.0, Section 3.2.5, Table 3.2.5.5: Code List / Controlled Terms have allowable values of: ""Y""

OCCDS v1.1, Section 3.2.5, Table 3.2.5.5: Code List / Controlled Terms have allowable values of: ""Y""

ADaMIG-MD v1.0, Section 3.1: The MDOCCDS supports analysis needs by adding SPDEVID as a required identifier and allowing USUBJID be a conditionally required variable. See the OCCDS class for further details.",,Added MEDICAL DEVICE OCCURRENCE DATA STRUCTURE to the Class,,,,,,,,,,,,,,,,,
CDISC.ADaMIG.AD0271,AD0271,271,1.3,2,OCCURRENCE DATA STRUCTURE; MEDICAL DEVICE OCCURRENCE DATA STRUCTURE,,,FUPFL,,,,,,FUPFL is not equal to Y or null,FUPFL is not equal to Y or null,,,,,,,,,,,,OCCDS v1.0; OCCDS v1.1; ADaMIG-MD v1.0,3.2.5; 3.2.5; 3.1,Table 3.2.5.5; Table 3.2.5.5,"OCCDS v1.0, Section 3.2.5, Table 3.2.5.5: Code List / Controlled Terms have allowable values of: ""Y""

OCCDS v1.1, Section 3.2.5, Table 3.2.5.5: Code List / Controlled Terms have allowable values of: ""Y""

ADaMIG-MD v1.0, Section 3.1: The MDOCCDS supports analysis needs by adding SPDEVID as a required identifier and allowing USUBJID be a conditionally required variable. See the OCCDS class for further details.",,Added MEDICAL DEVICE OCCURRENCE DATA STRUCTURE to the Class,,,,,,,,,,,,,,,,,
,AD0272,272,1.3,2,OCCURRENCE DATA STRUCTURE; MEDICAL DEVICE OCCURRENCE DATA STRUCTURE,,,"AOCCzzFL where zz is an integer [01-99, zero-padded]",,,,,,A variable with a prefix of AOCC and a suffix of FL is not equal to Y or null,AOCCzzFL is not equal to Y or null,,,,,,,,,,,,OCCDS v1.0; OCCDS v1.1; ADaMIG-MD v1.0,3.2.6; 3.2.6; 3.1,Table 3.2.6.1; Table 3.2.6.1,"OCCDS v1.0, Section 3.2.6, Table 3.2.6.1: Code List / Controlled Terms have allowable values of: ""Y""

OCCDS v1.1, Section 3.2.6, Table 3.2.6.1: Code List / Controlled Terms have allowable values of: ""Y""

ADaMIG-MD v1.0, Section 3.1: The MDOCCDS supports analysis needs by adding SPDEVID as a required identifier and allowing USUBJID be a conditionally required variable. See the OCCDS class for further details.",,Added MEDICAL DEVICE OCCURRENCE DATA STRUCTURE to the Class,,,,,,,,,,,,,,,,,
CDISC.ADAMIG.AD0278,AD0278,278,1.3,1,OCCURRENCE DATA STRUCTURE,ADVERSE EVENT,,,,,,,,AESER is not present,AESER is not present,,,,,,,,,,,,OCCDS v1.0; OCCDS v1.1,3.2.8; 3.2.8,Table 3.2.8.1; Table 3.2.8.1,"OCCDS v1.0, Section 3.2.8, Table 3.2.8.1: AESER has Core=Req.

OCCDS v1.1, Section 3.2.8, Table 3.2.8.1: AESER has Core=Req for SubClass=ADVERSE EVENT.",,,,,,,,,,,,,,,,,,,
CDISC.ADaMIG.AD0279,AD0279,279,1.3,2,OCCURRENCE DATA STRUCTURE; MEDICAL DEVICE OCCURRENCE DATA STRUCTURE,,,AESEVN,,,,,,"AESEVN is not equal to 1, 2, 3, or null","AESEVN is not equal to 1, 2, 3, or null",,,,,,,,,,,,ADaMIG v1.3; OCCDS v1.0; OCCDS v1.1; ADaMIG-MD v1.0,3.1.1; 3.2.8; 3.2.8; 3.1,6; Table 3.2.8.1; Table 3.2.8.1,"ADaMIG v1.3, Section 3.1.1, Item 6: In a pair of corresponding variables (e.g., TRTP and TRTPN), the primary or most commonly used variable does not have the suffix or extension (i.e., N for Numeric or C for Character). The relevant suffix is used only on the name of the secondary member of the variable pair. For example, in the (TRTP, TRTPN) pair, the primary variable, TRTP is character; but it is not named TRTPC. Similarly in the (APERIOD, APERIODC) pair, the primary variable, APERIOD, is numeric; but it is not named APERIODN. When the secondary variable is included in the dataset, then the primary variable must also be included. If both variables of a variable pair are present, there must be a one-to-one relationship between the values of the two variables, as described in Item 5 above.

OCCDS v1.0, Section 3.2.8, Table 3.2.8.1: CDISC Notes for AESEVN state: ""Code AE.AESEV to numeric"".  Code List / Controlled Terms have allowable values of: ""1, 2, 3"".

OCCDS v1.1, Section 3.2.8, Table 3.2.8.1: CDISC Notes for AESEVN state: ""Code AE.AESEV to numeric"". Code List / Controlled Terms have allowable values of: ""1, 2, 3"".

ADaMIG-MD v1.0, Section 3.1: The MDOCCDS supports analysis needs by adding SPDEVID as a required identifier and allowing USUBJID be a conditionally required variable. See the OCCDS class for further details.",,Added MEDICAL DEVICE OCCURRENCE DATA STRUCTURE to the Class,,,,,,,,,,,,,,,,,
,AD0280,280,1.0,1,OCCURRENCE DATA STRUCTURE,,,AESEV,,,,,,There is more than one value of AESEV for a given value of AESEVN,There is more than one value of AESEV for a given value of AESEVN,,,,,,,,,,,,ADaMIG v1.0; OCCDS v1.0; OCCDS v1.1,3; 3.2.8; 3.2.8,9 (General Variable Naming Conventions); Table 3.2.8.1; Table 3.2.8.1,"ADaMIG v1.0, Section 3, Item 9 (General Variable Naming Conventions): In general, if SDTM character variables are converted to numeric variables in ADaM datasets, then they should be named as they are in the SDTM with an ""N"" suffix added. For example, the numeric version of the DM SEX variable is SEXN in an ADaM dataset, and a numeric version of RACE is RACEN. If necessary to keep within the 8-character variable name length limit, the last character may be removed prior to appending the N. Note that this naming scheme applies only to numeric variables whose values map one-to-one to the values of the equivalent character variables. Note also that this convention does not apply to date/time variables.

OCCDS v1.0, Section 3.2.8, Table 3.2.8.1: CDISC Notes for AESEVN state: ""Code AE.AESEV to numeric"".

OCCDS v1.1, Section 3.2.8, Table 3.2.8.1: CDISC Notes for AESEVN state: ""Code AE.AESEV to numeric"".",,,,,,,,,,,,,,,,,,,
,AD0281,281,1.0,1,OCCURRENCE DATA STRUCTURE,,,AESEVN,,,,,,There is more than one value of AESEVN for a given value of AESEV,There is more than one value of AESEVN for a given value of AESEV,,,,,,,,,,,,ADaMIG v1.0; OCCDS v1.0; OCCDS v1.1,3; 3.2.8; 3.2.8,9 (General Variable Naming Conventions); Table 3.2.8.1; Table 3.2.8.1,"ADaMIG v1.0, Section 3, Item 9 (General Variable Naming Conventions): In general, if SDTM character variables are converted to numeric variables in ADaM datasets, then they should be named as they are in the SDTM with an ""N"" suffix added. For example, the numeric version of the DM SEX variable is SEXN in an ADaM dataset, and a numeric version of RACE is RACEN. If necessary to keep within the 8-character variable name length limit, the last character may be removed prior to appending the N. Note that this naming scheme applies only to numeric variables whose values map one-to-one to the values of the equivalent character variables. Note also that this convention does not apply to date/time variables.

OCCDS v1.0, Section 3.2.8, Table 3.2.8.1: CDISC Notes for AESEVN state: ""Code AE.AESEV to numeric"".

OCCDS v1.1, Section 3.2.8, Table 3.2.8.1: CDISC Notes for AESEVN state: ""Code AE.AESEV to numeric"".",,,,,,,,,,,,,,,,,,,
,AD0282,282,1.3,2,OCCURRENCE DATA STRUCTURE; MEDICAL DEVICE OCCURRENCE DATA STRUCTURE,,,ASEVN,,,,,,"ASEVN is not equal to 1, 2, 3, or null","ASEVN is not equal to 1, 2, 3, or null",,,,,,,,,,,,ADaMIG v1.3; OCCDS v1.0; OCCDS v1.1; ADaMIG-MD v1.0,3.1.1; 3.2.8; 3.2.8; 3.1,6; Table 3.2.8.1; Table 3.2.8.1,"ADaMIG v1.3, Section 3.1.1, Item 6: In a pair of corresponding variables (e.g., TRTP and TRTPN), the primary or most commonly used variable does not have the suffix or extension (i.e., N for Numeric or C for Character). The relevant suffix is used only on the name of the secondary member of the variable pair. For example, in the (TRTP, TRTPN) pair, the primary variable, TRTP is character; but it is not named TRTPC. Similarly in the (APERIOD, APERIODC) pair, the primary variable, APERIOD, is numeric; but it is not named APERIODN. When the secondary variable is included in the dataset, then the primary variable must also be included. If both variables of a variable pair are present, there must be a one-to-one relationship between the values of the two variables, as described in Item 5 above.

OCCDS v1.0, Section 3.2.8, Table 3.2.8.1: CDISC Notes for ASEVN state: ""Code AE.ASEV to numeric"".

OCCDS v1.1, Section 3.2.8, Table 3.2.8.1: CDISC Notes for ASEVN state: ""Code AE.ESEV to numeric"". Code List / Terms have allowable values of: ""1, 2, 3"".

ADaMIG-MD v1.0, Section 3.1: The MDOCCDS supports analysis needs by adding SPDEVID as a required identifier and allowing USUBJID be a conditionally required variable. See the OCCDS class for further details.",,Added MEDICAL DEVICE OCCURRENCE DATA STRUCTURE to the Class,,,,,,,,,,,,,,,,,
,AD0283,283,1.0,1,OCCURRENCE DATA STRUCTURE,,,ASEV,,,,,,There is more than one value of ASEV for a given value of ASEVN,There is more than one value of ASEV for a given value of ASEVN,,,,,,,,,,,,ADaMIG v1.0; OCCDS v1.0; OCCDS v1.1,3; 3.2.8; 3.2.8,9 (General Variable Naming Conventions); Table 3.2.8.1; Table 3.2.8.1,"ADaMIG v1.0, Section 3, Item 9 (General Variable Naming Conventions): In general, if SDTM character variables are converted to numeric variables in ADaM datasets, then they should be named as they are in the SDTM with an ""N"" suffix added. For example, the numeric version of the DM SEX variable is SEXN in an ADaM dataset, and a numeric version of RACE is RACEN. If necessary to keep within the 8-character variable name length limit, the last character may be removed prior to appending the N. Note that this naming scheme applies only to numeric variables whose values map one-to-one to the values of the equivalent character variables. Note also that this convention does not apply to date/time variables.

OCCDS v1.0, Section 3.2.8, Table 3.2.8.1: CDISC Notes for ASEVN state: ""Code AE.ASEV to numeric"".

OCCDS v1.1, Section 3.2.8, Table 3.2.8.1: CDISC Notes for ASEVN state: ""Code AE.ASEV to numeric"". Code List / Terms have allowable values of: ""1, 2, 3"".",,,,,,,,,,,,,,,,,,,
,AD0284,284,1.0,1,OCCURRENCE DATA STRUCTURE,,,ASEVN,,,,,,There is more than one value of ASEVN for a given value of ASEV,There is more than one value of ASEVN for a given value of ASEV,,,,,,,,,,,,ADaMIG v1.0; OCCDS v1.0; OCCDS v1.1,3; 3.2.8; 3.2.8,9 (General Variable Naming Conventions); Table 3.2.8.1; Table 3.2.8.1,"ADaMIG v1.0, Section 3, Item 9 (General Variable Naming Conventions): In general, if SDTM character variables are converted to numeric variables in ADaM datasets, then they should be named as they are in the SDTM with an ""N"" suffix added. For example, the numeric version of the DM SEX variable is SEXN in an ADaM dataset, and a numeric version of RACE is RACEN. If necessary to keep within the 8-character variable name length limit, the last character may be removed prior to appending the N. Note that this naming scheme applies only to numeric variables whose values map one-to-one to the values of the equivalent character variables. Note also that this convention does not apply to date/time variables.

OCCDS v1.0, Section 3.2.8, Table 3.2.8.1: CDISC Notes for ASEVN state: ""Code AE.ASEV to numeric"".

OCCDS v1.1, Section 3.2.8, Table 3.2.8.1: CDISC Notes for ASEVN state: ""Code AE.ASEV to numeric"". Code List / Terms have allowable values of: ""1, 2, 3"".",,,,,,,,,,,,,,,,,,,
,AD0285,285,1.0,1,OCCURRENCE DATA STRUCTURE,,,"SEVGRy where y is an integer [1-9, not zero-padded]",,,,,,There is more than one value of SEVGRy for a given value of SEVGRyN,There is more than one value of SEVGRy for a given value of SEVGRyN,,,,,,,,,,,,ADaMIG v1.0; OCCDS v1.0; OCCDS v1.1,3; 3.2.8; 3.2.8,9 (General Variable Naming Conventions); Table 3.2.8.1; Table 3.2.8.1,"ADaMIG v1.0, Section 3, Item 9 (General Variable Naming Conventions): In general, if SDTM character variables are converted to numeric variables in ADaM datasets, then they should be named as they are in the SDTM with an ""N"" suffix added. For example, the numeric version of the DM SEX variable is SEXN in an ADaM dataset, and a numeric version of RACE is RACEN. If necessary to keep within the 8-character variable name length limit, the last character may be removed prior to appending the N. Note that this naming scheme applies only to numeric variables whose values map one-to-one to the values of the equivalent character variables. Note also that this convention does not apply to date/time variables.

OCCDS v1.0, Section 3.2.8, Table 3.2.8.1: CDISC Notes for SEVGRyN state: ""Code SEVGRy to numeric"".

OCCDS v1.1, Section 3.2.8, Table 3.2.8.1: CDISC Notes for SEVGRyN state: ""Code SEVGRy to numeric"".",,,,,,,,,,,,,,,,,,,
,AD0286,286,1.0,1,OCCURRENCE DATA STRUCTURE,,,"SEVGRyN where y is an integer [1-9, not zero-padded]",,,,,,There is more than one value of SEVGRyN for a given value of SEVGRy,There is more than one value of SEVGRyN for a given value of SEVGRy,,,,,,,,,,,,ADaMIG v1.0; OCCDS v1.0; OCCDS v1.1,3; 3.2.8; 3.2.8,9 (General Variable Naming Conventions); Table 3.2.8.1; Table 3.2.8.1,"ADaMIG v1.0, Section 3, Item 9 (General Variable Naming Conventions): In general, if SDTM character variables are converted to numeric variables in ADaM datasets, then they should be named as they are in the SDTM with an ""N"" suffix added. For example, the numeric version of the DM SEX variable is SEXN in an ADaM dataset, and a numeric version of RACE is RACEN. If necessary to keep within the 8-character variable name length limit, the last character may be removed prior to appending the N. Note that this naming scheme applies only to numeric variables whose values map one-to-one to the values of the equivalent character variables. Note also that this convention does not apply to date/time variables.

OCCDS v1.0, Section 3.2.8, Table 3.2.8.1: CDISC Notes for SEVGRyN state: ""Code SEVGRy to numeric"".

OCCDS v1.1, Section 3.2.8, Table 3.2.8.1: CDISC Notes for SEVGRyN state: ""Code SEVGRy to numeric"".",,,,,,,,,,,,,,,,,,,
,AD0287,287,1.0,1,OCCURRENCE DATA STRUCTURE,,,AEREL,,,,,,There is more than one value of AEREL for a given value of AERELN,There is more than one value of AEREL for a given value of AERELN,,,,,,,,,,,,ADaMIG v1.0; OCCDS v1.0; OCCDS v1.1,3; 3.2.8; 3.2.8,9 (General Variable Naming Conventions); Table 3.2.8.1; Table 3.2.8.1,"ADaMIG v1.0, Section 3, Item 9 (General Variable Naming Conventions): In general, if SDTM character variables are converted to numeric variables in ADaM datasets, then they should be named as they are in the SDTM with an ""N"" suffix added. For example, the numeric version of the DM SEX variable is SEXN in an ADaM dataset, and a numeric version of RACE is RACEN. If necessary to keep within the 8-character variable name length limit, the last character may be removed prior to appending the N. Note that this naming scheme applies only to numeric variables whose values map one-to-one to the values of the equivalent character variables. Note also that this convention does not apply to date/time variables.

OCCDS v1.0, Section 3.2.8, Table 3.2.8.1: CDISC Notes for AERELN state: ""Code AE.AEREL to numeric"".

OCCDS v1.1, Section 3.2.8, Table 3.2.8.1: CDISC Notes for AERELN state: ""Code AE.AEREL to numeric"".",,,,,,,,,,,,,,,,,,,
,AD0288,288,1.0,1,OCCURRENCE DATA STRUCTURE,,,AERELN,,,,,,There is more than one value of AERELN for a given value of AEREL,There is more than one value of AERELN for a given value of AEREL,,,,,,,,,,,,ADaMIG v1.0; OCCDS v1.0; OCCDS v1.1,3; 3.2.8; 3.2.8,9 (General Variable Naming Conventions); Table 3.2.8.1; Table 3.2.8.1,"ADaMIG v1.0, Section 3, Item 9 (General Variable Naming Conventions): In general, if SDTM character variables are converted to numeric variables in ADaM datasets, then they should be named as they are in the SDTM with an ""N"" suffix added. For example, the numeric version of the DM SEX variable is SEXN in an ADaM dataset, and a numeric version of RACE is RACEN. If necessary to keep within the 8-character variable name length limit, the last character may be removed prior to appending the N. Note that this naming scheme applies only to numeric variables whose values map one-to-one to the values of the equivalent character variables. Note also that this convention does not apply to date/time variables.

OCCDS v1.0, Section 3.2.8, Table 3.2.8.1: CDISC Notes for AERELN state: ""Code AE.AEREL to numeric"".

OCCDS v1.1, Section 3.2.8, Table 3.2.8.1: CDISC Notes for AERELN state: ""Code AE.AEREL to numeric"".",,,,,,,,,,,,,,,,,,,
,AD0289,289,1.0,1,OCCURRENCE DATA STRUCTURE,,,AREL,,,,,,There is more than one value of AREL for a given value of ARELN,There is more than one value of AREL for a given value of ARELN,,,,,,,,,,,,ADaMIG v1.0; OCCDS v1.0; OCCDS v1.1,3; 3.2.8; 3.2.8,9 (General Variable Naming Conventions); Table 3.2.8.1; Table 3.2.8.1,"ADaMIG v1.0, Section 3, Item 9 (General Variable Naming Conventions): In general, if SDTM character variables are converted to numeric variables in ADaM datasets, then they should be named as they are in the SDTM with an ""N"" suffix added. For example, the numeric version of the DM SEX variable is SEXN in an ADaM dataset, and a numeric version of RACE is RACEN. If necessary to keep within the 8-character variable name length limit, the last character may be removed prior to appending the N. Note that this naming scheme applies only to numeric variables whose values map one-to-one to the values of the equivalent character variables. Note also that this convention does not apply to date/time variables.

OCCDS v1.0, Section 3.2.8, Table 3.2.8.1: CDISC Notes for ARELN state: ""Code AREL to numeric"".

OCCDS v1.1, Section 3.2.8, Table 3.2.8.1: CDISC Notes for ARELN state: ""Code AREL to numeric"".",,,,,,,,,,,,,,,,,,,
,AD0290,290,1.0,1,OCCURRENCE DATA STRUCTURE,,,ARELN,,,,,,There is more than one value of ARELN for a given value of AREL,There is more than one value of ARELN for a given value of AREL,,,,,,,,,,,,ADaMIG v1.0; OCCDS v1.0; OCCDS v1.1,3; 3.2.8; 3.2.8,9 (General Variable Naming Conventions); Table 3.2.8.1; Table 3.2.8.1,"ADaMIG v1.0, Section 3, Item 9 (General Variable Naming Conventions): In general, if SDTM character variables are converted to numeric variables in ADaM datasets, then they should be named as they are in the SDTM with an ""N"" suffix added. For example, the numeric version of the DM SEX variable is SEXN in an ADaM dataset, and a numeric version of RACE is RACEN. If necessary to keep within the 8-character variable name length limit, the last character may be removed prior to appending the N. Note that this naming scheme applies only to numeric variables whose values map one-to-one to the values of the equivalent character variables. Note also that this convention does not apply to date/time variables.

OCCDS v1.0, Section 3.2.8, Table 3.2.8.1: CDISC Notes for ARELN state: ""Code AREL to numeric"".

OCCDS v1.1, Section 3.2.8, Table 3.2.8.1: CDISC Notes for ARELN state: ""Code AREL to numeric"".",,,,,,,,,,,,,,,,,,,
,AD0291,291,1.0,1,OCCURRENCE DATA STRUCTURE,,,"RELGRy where y is an integer [1-9, not zero-padded]",,,,,,There is more than one value of RELGRy for a given value of RELGRyN,There is more than one value of RELGRy for a given value of RELGRyN,,,,,,,,,,,,ADaMIG v1.0; OCCDS v1.0; OCCDS v1.1,3; 3.2.8; 3.2.8,9 (General Variable Naming Conventions); Table 3.2.8.1; Table 3.2.8.1,"ADaMIG v1.0, Section 3, Item 9 (General Variable Naming Conventions): In general, if SDTM character variables are converted to numeric variables in ADaM datasets, then they should be named as they are in the SDTM with an ""N"" suffix added. For example, the numeric version of the DM SEX variable is SEXN in an ADaM dataset, and a numeric version of RACE is RACEN. If necessary to keep within the 8-character variable name length limit, the last character may be removed prior to appending the N. Note that this naming scheme applies only to numeric variables whose values map one-to-one to the values of the equivalent character variables. Note also that this convention does not apply to date/time variables.

OCCDS v1.0, Section 3.2.8, Table 3.2.8.1: CDISC Notes for RELGRyN state: ""Code RELGRy to numeric"".

OCCDS v1.1, Section 3.2.8, Table 3.2.8.1: CDISC Notes for RELGRyN state: ""Code RELGRy to numeric"".",,,,,,,,,,,,,,,,,,,
,AD0292,292,1.0,1,OCCURRENCE DATA STRUCTURE,,,"RELGRyN where y is an integer [1-9, not zero-padded]",,,,,,There is more than one value of RELGRyN for a given value of RELGRy,There is more than one value of RELGRyN for a given value of RELGRy,,,,,,,,,,,,ADaMIG v1.0; OCCDS v1.0; OCCDS v1.1,3; 3.2.8; 3.2.8,9 (General Variable Naming Conventions); Table 3.2.8.1; Table 3.2.8.1,"ADaMIG v1.0, Section 3, Item 9 (General Variable Naming Conventions): In general, if SDTM character variables are converted to numeric variables in ADaM datasets, then they should be named as they are in the SDTM with an ""N"" suffix added. For example, the numeric version of the DM SEX variable is SEXN in an ADaM dataset, and a numeric version of RACE is RACEN. If necessary to keep within the 8-character variable name length limit, the last character may be removed prior to appending the N. Note that this naming scheme applies only to numeric variables whose values map one-to-one to the values of the equivalent character variables. Note also that this convention does not apply to date/time variables.

OCCDS v1.0, Section 3.2.8, Table 3.2.8.1: CDISC Notes for RELGRyN state: ""Code RELGRy to numeric"".

OCCDS v1.1, Section 3.2.8, Table 3.2.8.1: CDISC Notes for RELGRyN state: ""Code RELGRy to numeric"".",,,,,,,,,,,,,,,,,,,
,AD0293,293,1.0,1,OCCURRENCE DATA STRUCTURE,,,AETOXGR,,,,,,There is more than one value of AETOXGR for a given value of AETOXGRN,There is more than one value of AETOXGR for a given value of AETOXGRN,,,,,,,,,,,,ADaMIG v1.0; OCCDS v1.0; OCCDS v1.1,3; 3.2.8; 3.2.8,9 (General Variable Naming Conventions); Table 3.2.8.1; Table 3.2.8.1,"ADaMIG v1.0, Section 3, Item 9 (General Variable Naming Conventions): In general, if SDTM character variables are converted to numeric variables in ADaM datasets, then they should be named as they are in the SDTM with an ""N"" suffix added. For example, the numeric version of the DM SEX variable is SEXN in an ADaM dataset, and a numeric version of RACE is RACEN. If necessary to keep within the 8-character variable name length limit, the last character may be removed prior to appending the N. Note that this naming scheme applies only to numeric variables whose values map one-to-one to the values of the equivalent character variables. Note also that this convention does not apply to date/time variables.

OCCDS v1.0, Section 3.2.8, Table 3.2.8.1: CDISC Notes for AETOXGRN state: ""Code AETOXGR to numeric"".

OCCDS v1.1, Section 3.2.8, Table 3.2.8.1: CDISC Notes for AETOXGRN state: ""Code AETOXGR to numeric"".",,,,,,,,,,,,,,,,,,,
,AD0294,294,1.0,1,OCCURRENCE DATA STRUCTURE,,,AETOXGRN,,,,,,There is more than one value of AETOXGRN for a given value of AETOXGR,There is more than one value of AETOXGRN for a given value of AETOXGR,,,,,,,,,,,,ADaMIG v1.0; OCCDS v1.0; OCCDS v1.1,3; 3.2.8; 3.2.8,9 (General Variable Naming Conventions); Table 3.2.8.1; Table 3.2.8.1,"ADaMIG v1.0, Section 3, Item 9 (General Variable Naming Conventions): In general, if SDTM character variables are converted to numeric variables in ADaM datasets, then they should be named as they are in the SDTM with an ""N"" suffix added. For example, the numeric version of the DM SEX variable is SEXN in an ADaM dataset, and a numeric version of RACE is RACEN. If necessary to keep within the 8-character variable name length limit, the last character may be removed prior to appending the N. Note that this naming scheme applies only to numeric variables whose values map one-to-one to the values of the equivalent character variables. Note also that this convention does not apply to date/time variables.

OCCDS v1.0, Section 3.2.8, Table 3.2.8.1: CDISC Notes for AETOXGRN state: ""Code AETOXGR to numeric"".

OCCDS v1.1, Section 3.2.8, Table 3.2.8.1: CDISC Notes for AETOXGRN state: ""Code AETOXGR to numeric"".",,,,,,,,,,,,,,,,,,,
,AD0295,295,1.0,1,OCCURRENCE DATA STRUCTURE,,,ATOXGR,,,,,,There is more than one value of ATOXGR for a given value of ATOXGRN,There is more than one value of ATOXGR for a given value of ATOXGRN,,,,,,,,,,,,ADaMIG v1.0; OCCDS v1.0; OCCDS v1.1,3; 3.2.8; 3.2.8,9 (General Variable Naming Conventions); Table 3.2.8.1; Table 3.2.8.1,"ADaMIG v1.0, Section 3, Item 9 (General Variable Naming Conventions): In general, if SDTM character variables are converted to numeric variables in ADaM datasets, then they should be named as they are in the SDTM with an ""N"" suffix added. For example, the numeric version of the DM SEX variable is SEXN in an ADaM dataset, and a numeric version of RACE is RACEN. If necessary to keep within the 8-character variable name length limit, the last character may be removed prior to appending the N. Note that this naming scheme applies only to numeric variables whose values map one-to-one to the values of the equivalent character variables. Note also that this convention does not apply to date/time variables.

OCCDS v1.0, Section 3.2.8, Table 3.2.8.1: CDISC Notes for ATOXGRN state: ""Code ATOXGR to numeric"".

OCCDS v1.1, Section 3.2.8, Table 3.2.8.1: CDISC Notes for ATOXGRN state: ""Code ATOXGR to numeric"".",,,,,,,,,,,,,,,,,,,
,AD0296,296,1.0,1,OCCURRENCE DATA STRUCTURE,,,ATOXGRN,,,,,,There is more than one value of ATOXGRN for a given value of ATOXGR,There is more than one value of ATOXGRN for a given value of ATOXGR,,,,,,,,,,,,ADaMIG v1.0; OCCDS v1.0; OCCDS v1.1,3; 3.2.8; 3.2.8,9 (General Variable Naming Conventions); Table 3.2.8.1; Table 3.2.8.1,"ADaMIG v1.0, Section 3, Item 9 (General Variable Naming Conventions): In general, if SDTM character variables are converted to numeric variables in ADaM datasets, then they should be named as they are in the SDTM with an ""N"" suffix added. For example, the numeric version of the DM SEX variable is SEXN in an ADaM dataset, and a numeric version of RACE is RACEN. If necessary to keep within the 8-character variable name length limit, the last character may be removed prior to appending the N. Note that this naming scheme applies only to numeric variables whose values map one-to-one to the values of the equivalent character variables. Note also that this convention does not apply to date/time variables.

OCCDS v1.0, Section 3.2.8, Table 3.2.8.1: CDISC Notes for ATOXGRN state: ""Code ATOXGR to numeric"".

OCCDS v1.1, Section 3.2.8, Table 3.2.8.1: CDISC Notes for ATOXGRN state: ""Code ATOXGR to numeric"".",,,,,,,,,,,,,,,,,,,
,AD0297,297,1.0,1,OCCURRENCE DATA STRUCTURE,,,"TOXGGRy where y is an integer [1-9, not zero-padded]",,,,,,There is more than one value of TOXGGRy for a given value of TOXGGRyN,There is more than one value of TOXGGRy for a given value of TOXGGRyN,,,,,,,,,,,,ADaMIG v1.0; OCCDS v1.0; OCCDS v1.1,3; 3.2.8; 3.2.8,9 (General Variable Naming Conventions); Table 3.2.8.1; Table 3.2.8.1,"ADaMIG v1.0, Section 3, Item 9 (General Variable Naming Conventions): In general, if SDTM character variables are converted to numeric variables in ADaM datasets, then they should be named as they are in the SDTM with an ""N"" suffix added. For example, the numeric version of the DM SEX variable is SEXN in an ADaM dataset, and a numeric version of RACE is RACEN. If necessary to keep within the 8-character variable name length limit, the last character may be removed prior to appending the N. Note that this naming scheme applies only to numeric variables whose values map one-to-one to the values of the equivalent character variables. Note also that this convention does not apply to date/time variables.

OCCDS v1.0, Section 3.2.8, Table 3.2.8.1: CDISC Notes for TOXGGRyN state: ""Code TOXGGRy to numeric"".

OCCDS v1.1, Section 3.2.8, Table 3.2.8.1: CDISC Notes for TOXGGRyN state: ""Code TOXGGRy to numeric"".",,,,,,,,,,,,,,,,,,,
,AD0298,298,1.0,1,OCCURRENCE DATA STRUCTURE,,,"TOXGGRyN where y is an integer [1-9, not zero-padded]",,,,,,There is more than one value of TOXGGRyN for a given value of TOXGGRy,There is more than one value of TOXGGRyN for a given value of TOXGGRy,,,,,,,,,,,,ADaMIG v1.0; OCCDS v1.0; OCCDS v1.1,3; 3.2.8; 3.2.8,9 (General Variable Naming Conventions); Table 3.2.8.1; Table 3.2.8.1,"ADaMIG v1.0, Section 3, Item 9 (General Variable Naming Conventions): In general, if SDTM character variables are converted to numeric variables in ADaM datasets, then they should be named as they are in the SDTM with an ""N"" suffix added. For example, the numeric version of the DM SEX variable is SEXN in an ADaM dataset, and a numeric version of RACE is RACEN. If necessary to keep within the 8-character variable name length limit, the last character may be removed prior to appending the N. Note that this naming scheme applies only to numeric variables whose values map one-to-one to the values of the equivalent character variables. Note also that this convention does not apply to date/time variables.

OCCDS v1.0, Section 3.2.8, Table 3.2.8.1: CDISC Notes for TOXGGRyN state: ""Code TOXGGRy to numeric"".

OCCDS v1.1, Section 3.2.8, Table 3.2.8.1: CDISC Notes for TOXGGRyN state: ""Code TOXGGRy to numeric"".",,,,,,,,,,,,,,,,,,,
,AD0304,304,1.3,2,OCCURRENCE DATA STRUCTURE; MEDICAL DEVICE OCCURRENCE DATA STRUCTURE,,,"SMQzzCD where zz is an integer [01-99, zero-padded]",,,,,,SMQzzNAM is populated and SMQzzCD is not populated,SMQzzCD is not populated,SMQzzNAM is populated,,,,,,,,,,,OCCDS v1.0; OCCDS v1.1; ADaMIG-MD v1.0,3.2.9; 3.2.9; 3.1,Table 3.2.9.1; Table 3.2.9.1,"OCCDS v1.0, Section 3.2.9, Table 3.2.9.1: CDISC Notes state: ""Conditional on whether SMQ analysis is done.""

OCCDS v1.1, Section 3.2.9, Table 3.2.9.1: CDISC Notes state: ""Conditional on whether SMQ analysis is done.""

ADaMIG-MD v1.0, Section 3.1: The MDOCCDS supports analysis needs by adding SPDEVID as a required identifier and allowing USUBJID be a conditionally required variable. See the OCCDS class for further details.",,Added MEDICAL DEVICE OCCURRENCE DATA STRUCTURE to the Class,,,,,,,,,,,,,,,,,
,AD0305,305,1.3,2,OCCURRENCE DATA STRUCTURE; MEDICAL DEVICE OCCURRENCE DATA STRUCTURE,,,"SMQzzSC where zz is an integer [01-99, zero-padded]",,,,,,SMQzzNAM is populated and SMQzzSC is not populated,SMQzzSC is not populated,SMQzzNAM is populated,,,,,,,,,,,OCCDS v1.0; OCCDS v1.1; ADaMIG-MD v1.0,3.2.9; 3.2.9; 3.1,Table 3.2.9.1; Table 3.2.9.1,"OCCDS v1.0, Section 3.2.9, Table 3.2.9.1: CDISC Notes state: ""Conditional on whether SMQ analysis is done.""

OCCDS v1.1, Section 3.2.9, Table 3.2.9.1: CDISC Notes state: ""Conditional on whether SMQ analysis is done.""

ADaMIG-MD v1.0, Section 3.1: The MDOCCDS supports analysis needs by adding SPDEVID as a required identifier and allowing USUBJID be a conditionally required variable. See the OCCDS class for further details.",,Added MEDICAL DEVICE OCCURRENCE DATA STRUCTURE to the Class,,,,,,,,,,,,,,,,,
,AD0306,306,1.3,2,OCCURRENCE DATA STRUCTURE; MEDICAL DEVICE OCCURRENCE DATA STRUCTURE,,,"SMQzzNAM where zz is an integer [01-99, zero-padded]",,,,,,SMQzzCD is populated and SMQzzNAM is not populated,SMQzzNAM is not populated,SMQzzCD is populated,,,,,,,,,,,OCCDS v1.0; OCCDS v1.1; ADaMIG-MD v1.0,3.2.9; 3.2.9; 3.1,Table 3.2.9.1; Table 3.2.9.1,"OCCDS v1.0, Section 3.2.9, Table 3.2.9.1: CDISC Notes state: ""Conditional on whether SMQ analysis is done.""

OCCDS v1.1, Section 3.2.9, Table 3.2.9.1: CDISC Notes state: ""Conditional on whether SMQ analysis is done.""

ADaMIG-MD v1.0, Section 3.1: The MDOCCDS supports analysis needs by adding SPDEVID as a required identifier and allowing USUBJID be a conditionally required variable. See the OCCDS class for further details.",,Added MEDICAL DEVICE OCCURRENCE DATA STRUCTURE to the Class,,,,,,,,,,,,,,,,,
,AD0307,307,1.3,2,OCCURRENCE DATA STRUCTURE; MEDICAL DEVICE OCCURRENCE DATA STRUCTURE,,,"SMQzzSC where zz is an integer [01-99, zero-padded]",,,,,,SMQzzCD is populated and SMQzzSC is not populated,SMQzzSC is not populated,SMQzzCD is populated,,,,,,,,,,,OCCDS v1.0; OCCDS v1.1; ADaMIG-MD v1.0,3.2.9; 3.2.9; 3.1,Table 3.2.9.1; Table 3.2.9.1,"OCCDS v1.0, Section 3.2.9, Table 3.2.9.1: CDISC Notes state: ""Conditional on whether SMQ analysis is done.""

OCCDS v1.1, Section 3.2.9, Table 3.2.9.1: CDISC Notes state: ""Conditional on whether SMQ analysis is done.""

ADaMIG-MD v1.0, Section 3.1: The MDOCCDS supports analysis needs by adding SPDEVID as a required identifier and allowing USUBJID be a conditionally required variable. See the OCCDS class for further details.",,Added MEDICAL DEVICE OCCURRENCE DATA STRUCTURE to the Class,,,,,,,,,,,,,,,,,
,AD0308,308,1.3,2,OCCURRENCE DATA STRUCTURE; MEDICAL DEVICE OCCURRENCE DATA STRUCTURE,,,"SMQzzNAM where zz is an integer [01-99, zero-padded]",,,,,,SMQzzSC is populated and SMQzzNAM is not populated,SMQzzNAM is not populated,SMQzzSC is populated,,,,,,,,,,,OCCDS v1.0; OCCDS v1.1; ADaMIG-MD v1.0,3.2.9; 3.2.9; 3.1,Table 3.2.9.1; Table 3.2.9.1,"OCCDS v1.0, Section 3.2.9, Table 3.2.9.1: CDISC Notes state: ""Conditional on whether SMQ analysis is done.""

OCCDS v1.1, Section 3.2.9, Table 3.2.9.1: CDISC Notes state: ""Conditional on whether SMQ analysis is done.""

ADaMIG-MD v1.0, Section 3.1: The MDOCCDS supports analysis needs by adding SPDEVID as a required identifier and allowing USUBJID be a conditionally required variable. See the OCCDS class for further details.",,Added MEDICAL DEVICE OCCURRENCE DATA STRUCTURE to the Class,,,,,,,,,,,,,,,,,
,AD0309,309,1.3,2,OCCURRENCE DATA STRUCTURE; MEDICAL DEVICE OCCURRENCE DATA STRUCTURE,,,"SMQzzCD where zz is an integer [01-99, zero-padded]",,,,,,SMQzzSC is populated and SMQzzCD is not populated,SMQzzCD is not populated,SMQzzSC is populated,,,,,,,,,,,OCCDS v1.0; OCCDS v1.1; ADaMIG-MD v1.0,3.2.9; 3.2.9; 3.1,Table 3.2.9.1; Table 3.2.9.1,"OCCDS v1.0, Section 3.2.9, Table 3.2.9.1: CDISC Notes state: ""Conditional on whether SMQ analysis is done.""

OCCDS v1.1, Section 3.2.9, Table 3.2.9.1: CDISC Notes state: ""Conditional on whether SMQ analysis is done.""

ADaMIG-MD v1.0, Section 3.1: The MDOCCDS supports analysis needs by adding SPDEVID as a required identifier and allowing USUBJID be a conditionally required variable. See the OCCDS class for further details.",,Added MEDICAL DEVICE OCCURRENCE DATA STRUCTURE to the Class,,,,,,,,,,,,,,,,,
,AD0310,310,1.0,1,OCCURRENCE DATA STRUCTURE,,,"SMQzzSC where zz is an integer [01-99, zero-padded]",,,,,,There is more than one value of SMQzzSC for a given value of SMQzzSCN,There is more than one value of SMQzzSC for a given value of SMQzzSCN,,,,,,,,,,,,ADaMIG v1.0,3,9 (General Variable Naming Conventions),"ADaMIG v1.0, Section 3, Item 9 (General Variable Naming Conventions): In general, if SDTM character variables are converted to numeric variables in ADaM datasets, then they should be named as they are in the SDTM with an ""N"" suffix added. For example, the numeric version of the DM SEX variable is SEXN in an ADaM dataset, and a numeric version of RACE is RACEN. If necessary to keep within the 8-character variable name length limit, the last character may be removed prior to appending the N. Note that this naming scheme applies only to numeric variables whose values map one-to-one to the values of the equivalent character variables. Note also that this convention does not apply to date/time variables.",,,,,,,,,,,,,,,,,,,
,AD0311,311,1.0,1,OCCURRENCE DATA STRUCTURE,,,"SMQzzSCN where zz is an integer [01-99, zero-padded]",,,,,,There is more than one value of SMQzzSCN for a given value of SMQzzSC,There is more than one value of SMQzzSCN for a given value of SMQzzSC,,,,,,,,,,,,ADaMIG v1.0,3,9 (General Variable Naming Conventions),"ADaMIG v1.0, Section 3, Item 9 (General Variable Naming Conventions): In general, if SDTM character variables are converted to numeric variables in ADaM datasets, then they should be named as they are in the SDTM with an ""N"" suffix added. For example, the numeric version of the DM SEX variable is SEXN in an ADaM dataset, and a numeric version of RACE is RACEN. If necessary to keep within the 8-character variable name length limit, the last character may be removed prior to appending the N. Note that this naming scheme applies only to numeric variables whose values map one-to-one to the values of the equivalent character variables. Note also that this convention does not apply to date/time variables.",,,,,,,,,,,,,,,,,,,
,AD0312,312,1.3,2,OCCURRENCE DATA STRUCTURE; MEDICAL DEVICE OCCURRENCE DATA STRUCTURE,,,"SMQzzSC where zz is an integer [01-99, zero-padded]",,,,,,"SMQzzSC is not equal to BROAD or NARROW, where zz is a zero-padded two-digit integer [01-99]",SMQzzSC is not equal to BROAD or NARROW,SMQzzNAM is populated,,,,,,,,,,,OCCDS v1.0; OCCDS v1.1; ADaMIG-MD v1.0,3.2.9; 3.2.9; 3.1,Table 3.2.9.1; Table 3.2.9.1,"OCCDS v1.0, Section 3.2.9, Table 3.2.9.1: Code List / Controlled Terms have allowable values of: ""BROAD"", ""NARROW"".

OCCDS v1.1, Section 3.2.9, Table 3.2.9.1: Code List / Controlled Terms have allowable values of: ""BROAD"", ""NARROW"".

ADaMIG-MD v1.0, Section 3.1: The MDOCCDS supports analysis needs by adding SPDEVID as a required identifier and allowing USUBJID be a conditionally required variable. See the OCCDS class for further details.",,Added MEDICAL DEVICE OCCURRENCE DATA STRUCTURE to the Class,,,,,,,,,,,,,,,,,
,AD0313,313,1.3,2,OCCURRENCE DATA STRUCTURE; MEDICAL DEVICE OCCURRENCE DATA STRUCTURE,,,"SMQzzSCN where zz is an integer [01-99, zero-padded]",,,,,,"SMQzzSCN is not equal to 1 or 2, where zz is a zero-padded two-digit integer [01-99]",SMQzzSCN is not equal to 1 or 2,,,,,,,,,,,,OCCDS v1.0; OCCDS v1.1; ADaMIG-MD v1.0,3.2.9; 3.2.9; 3.1,Table 3.2.9.1; Table 3.2.9.1,"OCCDS v1.0, Section 3.2.9, Table 3.2.9.1: Code List / Controlled Terms have allowable values of: 1, 2.

OCCDS v1.1, Section 3.2.9, Table 3.2.9.1: Code List / Controlled Terms have allowable values of: 1, 2.

ADaMIG-MD v1.0, Section 3.1: The MDOCCDS supports analysis needs by adding SPDEVID as a required identifier and allowing USUBJID be a conditionally required variable. See the OCCDS class for further details.",,Added MEDICAL DEVICE OCCURRENCE DATA STRUCTURE to the Class,,,,,,,,,,,,,,,,,
,AD0320,320,1.3,1,SUBJECT LEVEL ANALYSIS DATASET,,,,,,,,,"A dataset is named ADSL and the dataset label is not ""Subject-Level Analysis Dataset""","Dataset label is not ""Subject-Level Analysis Dataset""",Dataset is named ADSL,,,,,,,,,,,ADaMIG v1.3,2.3.1,,"ADaMIG v1.3, Section 2.3.1: ADSL contains one record per subject, regardless of the type of clinical trial design. The label of the ADSL dataset is ""Subject-Level Analysis Dataset"".",,,,,,,,,,,,,,,,,,,
,AD0321,321,1.3,1,SUBJECT LEVEL ANALYSIS DATASET,,,,,,,,,"A dataset label is ""Subject-Level Analysis Dataset"" and the dataset is not named ADSL",Dataset name is not ADSL,"Dataset label is ""Subject-Level Analysis Dataset""",,,,,,,,,,,ADaMIG v1.3,2.3.1,,"ADaMIG v1.3, Section 2.3.1: ADSL contains one record per subject, regardless of the type of clinical trial design. The label of the ADSL dataset is ""Subject-Level Analysis Dataset"".",,,,,,,,,,,,,,,,,,,
,AD0322,322,1.3,2,BASIC DATA STRUCTURE; MEDICAL DEVICE BASIC DATA STRUCTURE; OCCURRENCE DATA STRUCTURE; MEDICAL DEVICE OCCURRENCE DATA STRUCTURE,,,"TRTPGy where y is an integer [1-99, not zero-padded]",,,,,,"Within a given value of TRTP, there is more than one value of TRTPGy, where y is an integer [1-99, not zero-padded]","Within a given value of TRTP, there is more than one value of TRTPGy",,,,,,,,,,,,ADaMIG v1.3; ADaMIG-MD v1.0,3.3.2; 3.1,Table 3.3.2.1,"ADaMIG v1.3, Section 3.3.2, Table 3.3.2.1: CDISC Notes for TRTPGy state: ""Each value of TRTP is pooled within at most one value of TRTPGy.""

ADaMIG-MD v1.0, Section 3.1: MDBDS and MDOCCDS support analysis needs by adding SPDEVID as a required key variable and USUBJID as a conditionally required variable. See the BDS and OCCDS class for further details.",,Added MEDICAL DEVICE BASIC DATA STRUCTURE and MEDICAL DEVICE OCCURRENCE DATA STRUCTURE to the Class,,,,,,,,,,,,,,,,,
,AD0323,323,1.3,2,BASIC DATA STRUCTURE; MEDICAL DEVICE BASIC DATA STRUCTURE; OCCURRENCE DATA STRUCTURE; MEDICAL DEVICE OCCURRENCE DATA STRUCTURE,,,APHASEN,,,,,,"Within a study, there is more than one value of APHASEN for a given value of APHASE, considering only those rows on which both variables are populated","Within a study, there is more than one value of APHASEN for a given value of APHASE",On rows where both APHASEN and APHASE are both populated,,,,,,,,,,,ADaMIG v1.3; ADaMIG-MD v1.0,3.3.3; 3.1,Table 3.3.3.1,"ADaMIG v1.3, Section 3.3.3, Table 3.3.3.1: CDISC Notes for APHASEN state: ""There must be a one-to-one relationship between APHASEN and APHASE within a study, which must be the same as the one-to-one mapping between w and APHASEw in ADSL.""

ADaMIG-MD v1.0, Section 3.1: MDBDS and MDOCCDS support analysis needs by adding SPDEVID as a required key variable and USUBJID as a conditionally required variable. See the BDS and OCCDS class for further details.",,Added MEDICAL DEVICE BASIC DATA STRUCTURE and MEDICAL DEVICE OCCURRENCE DATA STRUCTURE to the Class,,,,,,,,,,,,,,,,,
,AD0324,324,1.3,2,BASIC DATA STRUCTURE; MEDICAL DEVICE BASIC DATA STRUCTURE; OCCURRENCE DATA STRUCTURE; MEDICAL DEVICE OCCURRENCE DATA STRUCTURE,,,APHASE,,,,,,"Within a study, there is more than one value of APHASE for a given value of APHASEN, considering only those rows on which both variables are populated","Within a study, there is more than one value of APHASE for a given value of APHASEN",On rows where both APHASE and APHASEN are both populated,,,,,,,,,,,ADaMIG v1.3; ADaMIG-MD v1.0,3.3.3; 3.1,Table 3.3.3.1,"ADaMIG v1.3, Section 3.3.3, Table 3.3.3.1: CDISC Notes for APHASEN state: ""There must be a one-to-one relationship between APHASEN and APHASE within a study, which must be the same as the one-to-one mapping between w and APHASEw in ADSL.""

ADaMIG-MD v1.0, Section 3.1: MDBDS and MDOCCDS support analysis needs by adding SPDEVID as a required key variable and USUBJID as a conditionally required variable. See the BDS and OCCDS class for further details.",,Added MEDICAL DEVICE BASIC DATA STRUCTURE and MEDICAL DEVICE OCCURRENCE DATA STRUCTURE to the Class,,,,,,,,,,,,,,,,,
,AD0325,325,1.3,2,BASIC DATA STRUCTURE; MEDICAL DEVICE BASIC DATA STRUCTURE; OCCURRENCE DATA STRUCTURE; MEDICAL DEVICE OCCURRENCE DATA STRUCTURE,,,ASPER,,,,,,"Within a value of APERIOD, there is more than one value of ASPER for a given value of ASPERC, considering only those rows on which both variables are populated","Within a value of APERIOD, there is more than one value of ASPER for a given value of ASPERC",On rows where both ASPER and ASPERC are both populated,,,,,,,,,,,ADaMIG v1.3; ADaMIG-MD v1.0,3.3.3; 3.1,Table 3.3.3.1,"ADaMIG v1.3, Section 3.3.3, Table 3.3.3.1: CDISC Notes for ASPERC state: ""There must be a one-to-one relationship between ASPERC and ASPER within a value of APERIOD, which must be the same as the one-to-one mapping between PxxSw and w in ADSL, where xx is equal to the value of APERIOD."".  CDISC Notes for ASPER state: ""Within each APERIOD, the first ASPER is 1 (i.e., it resets to 1 when the APERIOD value changes). The value of ASPER (if populated) must be one of the w values found in the ADSL PxxSw variable names.""

ADaMIG-MD v1.0, Section 3.1: MDBDS and MDOCCDS support analysis needs by adding SPDEVID as a required key variable and USUBJID as a conditionally required variable. See the BDS and OCCDS class for further details.",,Added MEDICAL DEVICE BASIC DATA STRUCTURE and MEDICAL DEVICE OCCURRENCE DATA STRUCTURE to the Class,,,,,,,,,,,,,,,,,
,AD0326,326,1.3,2,BASIC DATA STRUCTURE; MEDICAL DEVICE BASIC DATA STRUCTURE; OCCURRENCE DATA STRUCTURE; MEDICAL DEVICE OCCURRENCE DATA STRUCTURE,,,ASPERC,,,,,,"Within a value of APERIOD, there is more than one value of ASPERC for a given value of ASPER, considering only those rows on which both variables are populated","Within a value of APERIOD, there is more than one value of ASPERC for a given value of ASPER",On rows where both ASPERC and ASPER are both populated,,,,,,,,,,,ADaMIG v1.3; ADaMIG-MD v1.0,3.3.3; 3.1,Table 3.3.3.1,"ADaMIG v1.3, Section 3.3.3, Table 3.3.3.1: CDISC Notes for ASPERC state: ""There must be a one-to-one relationship between ASPERC and ASPER within a value of APERIOD, which must be the same as the one-to-one mapping between PxxSw and w in ADSL, where xx is equal to the value of APERIOD."".  CDISC Notes for ASPER state: ""Within each APERIOD, the first ASPER is 1 (i.e., it resets to 1 when the APERIOD value changes). The value of ASPER (if populated) must be one of the w values found in the ADSL PxxSw variable names.""

ADaMIG-MD v1.0, Section 3.1: MDBDS and MDOCCDS support analysis needs by adding SPDEVID as a required key variable and USUBJID as a conditionally required variable. See the BDS and OCCDS class for further details.",,Added MEDICAL DEVICE BASIC DATA STRUCTURE and MEDICAL DEVICE OCCURRENCE DATA STRUCTURE to the Class,,,,,,,,,,,,,,,,,
,AD0327,327,1.3,2,BASIC DATA STRUCTURE; MEDICAL DEVICE BASIC DATA STRUCTURE,,,"AVALCATy where y is an integer [1-9, not zero-padded]",,,,,,"Within a parameter, there is more than one value of AVALCATy for a given value of AVALCAyN, considering only those rows on which both variables are populated","Within a parameter, there is more than one value of AVALCATy for a given value of AVALCAyN",On rows where both AVALCATy and AVALCAyN are both populated,,,,,,,,,,,ADaMIG v1.3; ADaMIG-MD v1.0,3.3.4.1; 3.1,Table 3.3.4.1.1,"ADaMIG v1.3, Section 3.3.4.1, Table 3.3.4.1.1: CDISC Notes for AVALCAyN state: ""There must be a one-to-one relationship between AVALCAyN and AVALCATy within a parameter.""

ADaMIG-MD v1.0, Section 3.1: The MDBDS supports analysis needs by adding SPDEVID as a required key variable and USUBJID as a conditionally required variable. See the BDS class for further details.",,Added MEDICAL DEVICE BASIC DATA STRUCTURE to the Class,,,,,,,,,,,,,,,,,
,AD0328,328,1.3,2,BASIC DATA STRUCTURE; MEDICAL DEVICE BASIC DATA STRUCTURE,,,"AVALCAyN where y is an integer [1-9, not zero-padded]",,,,,,"Within a parameter, there is more than one value of AVALCAyN for a given value of AVALCATy, considering only those rows on which both variables are populated","Within a parameter, there is more than one value of AVALCAyN for a given value of AVALCATy",On rows where both AVALCAyN and AVALCATy are both populated,,,,,,,,,,,ADaMIG v1.3; ADaMIG-MD v1.0,3.3.4.1; 3.1,Table 3.3.4.1.1,"ADaMIG v1.3, Section 3.3.4.1, Table 3.3.4.1.1: CDISC Notes for AVALCAyN state: ""There must be a one-to-one relationship between AVALCAyN and AVALCATy within a parameter.""

ADaMIG-MD v1.0, Section 3.1: The MDBDS supports analysis needs by adding SPDEVID as a required key variable and USUBJID as a conditionally required variable. See the BDS class for further details.",,Added MEDICAL DEVICE BASIC DATA STRUCTURE to the Class,,,,,,,,,,,,,,,,,
,AD0329,329,1.3,2,BASIC DATA STRUCTURE; MEDICAL DEVICE BASIC DATA STRUCTURE,,,"BASECATy where y is an integer [1-9, not zero-padded]",,,,,,"Within a parameter, there is more than one value of BASECATy for a given value of BASECAyN, considering only those rows on which both variables are populated","Within a parameter, there is more than one value of BASECATy for a given value of BASECAyN",On rows where both BASECATy and BASECAyN are both populated,,,,,,,,,,,ADaMIG v1.3; ADaMIG-MD v1.0,3.3.4.1; 3.1,Table 3.3.4.1.1,"ADaMIG v1.3, Section 3.3.4.1, Table 3.3.4.1.1: CDISC Notes for BASECAyN state: ""There must be a one-to-one relationship between BASECAyN and BASECATy within a parameter.""

ADaMIG-MD v1.0, Section 3.1: The MDBDS supports analysis needs by adding SPDEVID as a required key variable and USUBJID as a conditionally required variable. See the BDS class for further details.",,Added MEDICAL DEVICE BASIC DATA STRUCTURE to the Class,,,,,,,,,,,,,,,,,
,AD0330,330,1.3,2,BASIC DATA STRUCTURE; MEDICAL DEVICE BASIC DATA STRUCTURE,,,"BASECAyN where y is an integer [1-9, not zero-padded]",,,,,,"Within a parameter, there is more than one value of BASECAyN for a given value of BASECATy, considering only those rows on which both variables are populated","Within a parameter, there is more than one value of BASECAyN for a given value of BASECATy",On rows where both BASECAyN and BASECATy are both populated,,,,,,,,,,,ADaMIG v1.3; ADaMIG-MD v1.0,3.3.4.1; 3.1,Table 3.3.4.1.1,"ADaMIG v1.3, Section 3.3.4.1, Table 3.3.4.1.1: CDISC Notes for BASECAyN state: ""There must be a one-to-one relationship between BASECAyN and BASECATy within a parameter.""

ADaMIG-MD v1.0, Section 3.1: The MDBDS supports analysis needs by adding SPDEVID as a required key variable and USUBJID as a conditionally required variable. See the BDS class for further details.",,Added MEDICAL DEVICE BASIC DATA STRUCTURE to the Class,,,,,,,,,,,,,,,,,
,AD0331,331,1.3,2,BASIC DATA STRUCTURE; MEDICAL DEVICE BASIC DATA STRUCTURE,,,"CHGCATy where y is an integer [1-99, not zero-padded]",,,,,,"Within a parameter, there is more than one value of CHGCATy for a given value of CHGCATyN, considering only those rows on which both variables are populated","Within a parameter, there is more than one value of CHGCATy for a given value of CHGCATyN",On rows where both CHGCATy and CHGCATyN are both populated,,,,,,,,,,,ADaMIG v1.3; ADaMIG-MD v1.0,3.3.4.1; 3.1,Table 3.3.4.1.1,"ADaMIG v1.3, Section 3.3.4.1, Table 3.3.4.1.1: CDISC Notes for CHGCATyN state: ""There must be a one-to-one relationship between CHGCATyN and CHGCATy within a parameter.""

ADaMIG-MD v1.0, Section 3.1: The MDBDS supports analysis needs by adding SPDEVID as a required key variable and USUBJID as a conditionally required variable. See the BDS class for further details.",,Added MEDICAL DEVICE BASIC DATA STRUCTURE to the Class,,,,,,,,,,,,,,,,,
,AD0332,332,1.3,2,BASIC DATA STRUCTURE; MEDICAL DEVICE BASIC DATA STRUCTURE,,,"CHGCATyN where y is an integer [1-9, not zero-padded]",,,,,,"Within a parameter, there is more than one value of CHGCATyN for a given value of CHGCATy, considering only those rows on which both variables are populated","Within a parameter, there is more than one value of CHGCATyN for a given value of CHGCATy",On rows where both CHGCATyN and CHGCATy are both populated,,,,,,,,,,,ADaMIG v1.3; ADaMIG-MD v1.0,3.3.4.1; 3.1,Table 3.3.4.1.1,"ADaMIG v1.3, Section 3.3.4.1, Table 3.3.4.1.1: CDISC Notes for CHGCATyN state: ""There must be a one-to-one relationship between CHGCATyN and CHGCATy within a parameter.""

ADaMIG-MD v1.0, Section 3.1: The MDBDS supports analysis needs by adding SPDEVID as a required key variable and USUBJID as a conditionally required variable. See the BDS class for further details.",,Added MEDICAL DEVICE BASIC DATA STRUCTURE to the Class,,,,,,,,,,,,,,,,,
,AD0333,333,1.3,2,BASIC DATA STRUCTURE; MEDICAL DEVICE BASIC DATA STRUCTURE,,,"PCHGCATy where y is an integer [1-9, not zero-padded]",,,,,,"Within a parameter, there is more than one value of PCHGCATy for a given value of PCHGCAyN, considering only those rows on which both variables are populated","Within a parameter, there is more than one value of PCHGCATy for a given value of PCHGCAyN",On rows where both PCHGCATy and PCHGCAyN are both populated,,,,,,,,,,,ADaMIG v1.3; ADaMIG-MD v1.0,3.3.4.1; 3.1,Table 3.3.4.1.1,"ADaMIG v1.3, Section 3.3.4.1, Table 3.3.4.1.1: CDISC Notes for PCHGCAyN state: ""There must be a one-to-one relationship between PCHGCAyN and PCHGCATy within a parameter.""

ADaMIG-MD v1.0, Section 3.1: The MDBDS supports analysis needs by adding SPDEVID as a required key variable and USUBJID as a conditionally required variable. See the BDS class for further details.",,Added MEDICAL DEVICE BASIC DATA STRUCTURE to the Class,,,,,,,,,,,,,,,,,
,AD0334,334,1.3,2,BASIC DATA STRUCTURE; MEDICAL DEVICE BASIC DATA STRUCTURE,,,"PCHGCAyN where y is an integer [1-9, not zero-padded]",,,,,,"Within a parameter, there is more than one value of PCHGCAyN for a given value of PCHGCATy, considering only those rows on which both variables are populated","Within a parameter, there is more than one value of PCHGCAyN for a given value of PCHGCATy",On rows where both PCHGCAyN and PCHGCATy are both populated,,,,,,,,,,,ADaMIG v1.3; ADaMIG-MD v1.0,3.3.4.1; 3.1,Table 3.3.4.1.1,"ADaMIG v1.3, Section 3.3.4.1, Table 3.3.4.1.1: CDISC Notes for PCHGCAyN state: ""There must be a one-to-one relationship between PCHGCAyN and PCHGCATy within a parameter.""

ADaMIG-MD v1.0, Section 3.1: The MDBDS supports analysis needs by adding SPDEVID as a required key variable and USUBJID as a conditionally required variable. See the BDS class for further details.",,Added MEDICAL DEVICE BASIC DATA STRUCTURE to the Class,,,,,,,,,,,,,,,,,
,AD0335,335,1.3,2,BASIC DATA STRUCTURE; MEDICAL DEVICE BASIC DATA STRUCTURE,,,"CRITyFL where y is an integer [1-99, not zero-padded]",,,,,,CRITyFL is present and CRITy is not present,CRITy is not present,CRITyFL is present,,,,,,,,,,,ADaMIG v1.3; ADaMIG-MD v1.0,3.3.4.3; 3.1,Table 3.3.4.3.1,"ADaMIG v1.3, Section 3.3.4.3, Table 3.3.4.3.1: CDISC Notes for CRITyFL state: ""Required if CRITyFL is present.""

ADaMIG-MD v1.0, Section 3.1: The MDBDS supports analysis needs by adding SPDEVID as a required key variable and USUBJID as a conditionally required variable. See the BDS class for further details.",,Added MEDICAL DEVICE BASIC DATA STRUCTURE to the Class,,,,,,,,,,,,,,,,,
,AD0336,336,1.3,2,BASIC DATA STRUCTURE; MEDICAL DEVICE BASIC DATA STRUCTURE,,,"CRITy where y is an integer [1-99, not zero-padded]",,,,,,CRITy is present and CRITyFL is not present,CRITyFL is not present,CRITy is present,,,,,,,,,,,ADaMIG v1.3; ADaMIG-MD v1.0,3.3.4.3; 3.1,Table 3.3.4.3.1,"ADaMIG v1.3, Section 3.3.4.3, Table 3.3.4.3.1: CDISC Notes for CRITyFL state: ""Required if CRITyFL is present.""

ADaMIG-MD v1.0, Section 3.1: The MDBDS supports analysis needs by adding SPDEVID as a required key variable and USUBJID as a conditionally required variable. See the BDS class for further details.",,Added MEDICAL DEVICE BASIC DATA STRUCTURE to the Class,,,,,,,,,,,,,,,,,
,AD0337,337,1.3,2,BASIC DATA STRUCTURE; MEDICAL DEVICE BASIC DATA STRUCTURE,,,"MCRITyML where y is an integer [1-9, not zero-padded]",,,,,,MCRITyML is present and MCRITy is not present,MCRITy is not present,MCRITyML is present,,,,,,,,,,,ADaMIG v1.3; ADaMIG-MD v1.0,3.3.4.3; 3.1,Table 3.3.4.3.1,"ADaMIG v1.3, Section 3.3.4.3, Table 3.3.4.3.1: CDISC Notes for MCRITyML state: ""Required if MCRITy is present.""

ADaMIG-MD v1.0, Section 3.1: The MDBDS supports analysis needs by adding SPDEVID as a required key variable and USUBJID as a conditionally required variable. See the BDS class for further details.",,Added MEDICAL DEVICE BASIC DATA STRUCTURE to the Class,,,,,,,,,,,,,,,,,
,AD0338,338,1.3,2,BASIC DATA STRUCTURE; MEDICAL DEVICE BASIC DATA STRUCTURE,,,"MCRITy where y is an integer [1-99, not zero-padded]",,,,,,MCRITy is present and MCRITyML is not present,MCRITyML is not present,MCRITy is present,,,,,,,,,,,ADaMIG v1.3; ADaMIG-MD v1.0,3.3.4.3; 3.1,Table 3.3.4.3.1,"ADaMIG v1.3, Section 3.3.4.3, Table 3.3.4.3.1: CDISC Notes for MCRITyML state: ""Required if MCRITy is present.""

ADaMIG-MD v1.0, Section 3.1: The MDBDS supports analysis needs by adding SPDEVID as a required key variable and USUBJID as a conditionally required variable. See the BDS class for further details.",,Added MEDICAL DEVICE BASIC DATA STRUCTURE to the Class,,,,,,,,,,,,,,,,,
,AD0339,339,1.3,2,BASIC DATA STRUCTURE; MEDICAL DEVICE BASIC DATA STRUCTURE,,,"MCRITy where y is an integer [1-99, not zero-padded]",,,,,,MCRITyML is populated and MCRITy is not populated,MCRITy is not populated,MCRITyML is populated,,,,,,,,,,,ADaMIG v1.3; ADaMIG-MD v1.0,3.3.4.3; 3.1,Table 3.3.4.3.1,"ADaMIG v1.3, Section 3.3.4.3, Table 3.3.4.3.1: CDISC Notes for MCRITyML state: ""Required if MCRITy is present.""

ADaMIG-MD v1.0, Section 3.1: The MDBDS supports analysis needs by adding SPDEVID as a required key variable and USUBJID as a conditionally required variable. See the BDS class for further details.",,Added MEDICAL DEVICE BASIC DATA STRUCTURE to the Class,,,,,,,,,,,,,,,,,
,AD0340,340,1.3,2,BASIC DATA STRUCTURE; MEDICAL DEVICE BASIC DATA STRUCTURE,,,"MCRITyML where y is an integer [1-9, not zero-padded]",,,,,,"Within a parameter, there is more than one value of MCRITyML for a given value of MCRITyMN, considering only those rows on which both variables are populated","Within a parameter, there is more than one value of MCRITyML for a given value of MCRITyMN",On rows where both MCRITyML and MCRITyMN are both populated,,,,,,,,,,,ADaMIG v1.3; ADaMIG-MD v1.0,3.3.4.3; 3.1,Table 3.3.4.3.1,"ADaMIG v1.3, Section 3.3.4.3, Table 3.3.4..3.1: CDISC Notes for MCRITyMN state: ""There must be a one-to-one relationship between MCRITyMN and MCRITyML within a parameter.""

ADaMIG-MD v1.0, Section 3.1: The MDBDS supports analysis needs by adding SPDEVID as a required key variable and USUBJID as a conditionally required variable. See the BDS class for further details.",,Added MEDICAL DEVICE BASIC DATA STRUCTURE to the Class,,,,,,,,,,,,,,,,,
,AD0341,341,1.3,2,BASIC DATA STRUCTURE; MEDICAL DEVICE BASIC DATA STRUCTURE,,,"MCRITyMN where y is an integer [1-9, not zero-padded]",,,,,,"Within a parameter, there is more than one value of MCRITyMN for a given value of MCRITyML, considering only those rows on which both variables are populated","Within a parameter, there is more than one value of MCRITyMN for a given value of MCRITyML",On rows where both MCRITyMN and MCRITyML are both populated,,,,,,,,,,,ADaMIG v1.3; ADaMIG-MD v1.0,3.3.4.3; 3.1,Table 3.3.4.3.1,"ADaMIG v1.3, Section 3.3.4.3, Table 3.3.4..3.1: CDISC Notes for MCRITyMN state: ""There must be a one-to-one relationship between MCRITyMN and MCRITyML within a parameter.""

ADaMIG-MD v1.0, Section 3.1: The MDBDS supports analysis needs by adding SPDEVID as a required key variable and USUBJID as a conditionally required variable. See the BDS class for further details.",,Added MEDICAL DEVICE BASIC DATA STRUCTURE to the Class,,,,,,,,,,,,,,,,,
,AD0342,342,1.3,2,BASIC DATA STRUCTURE; MEDICAL DEVICE BASIC DATA STRUCTURE,,,ANRLO,,,,,,"Within a parameter, there is more than one value of ANRLO for a given value of ANRLOC","Within a parameter, there is more than one value of ANRLO for a given value of ANRLOC",,,,,,,,,,,,ADaMIG v1.3; ADaMIG-MD v1.0,3.3.7; 3.1,Table 3.3.7.1,"ADaMIG v1.3, Section 3.3.7, Table 3.3.7.1: CDISC Notes for ANRLOC state: ""Within a given parameter, if there exists a row on which both ANRLOC and ANRLO are populated, then there must be a one-to-one relationship between ANRLOC and ANRLO on all rows on which both variables are populated. (In other words, there is no requirement that records with a null value in either ANRLO or ANRLOC be included when determining whether the one-to-one relationship requirement is satisfied.) On a given record, it is permissible for ANRLO, ANRLOC, or both to be null.""

ADaMIG-MD v1.0, Section 3.1: The MDBDS supports analysis needs by adding SPDEVID as a required key variable and USUBJID as a conditionally required variable. See the BDS class for further details.",,Added MEDICAL DEVICE BASIC DATA STRUCTURE to the Class,,,,,,,,,,,,,,,,,
,AD0343,343,1.3,2,BASIC DATA STRUCTURE; MEDICAL DEVICE BASIC DATA STRUCTURE,,,ANRLOC,,,,,,"Within a parameter, there is more than one value of ANRLOC for a given value of ANRLO","Within a parameter, there is more than one value of ANRLOC for a given value of ANRLO",,,,,,,,,,,,ADaMIG v1.3; ADaMIG-MD v1.0,3.3.7; 3.1,Table 3.3.7.1,"ADaMIG v1.3, Section 3.3.7, Table 3.3.7.1: CDISC Notes for ANRLOC state: ""Within a given parameter, if there exists a row on which both ANRLOC and ANRLO are populated, then there must be a one-to-one relationship between ANRLOC and ANRLO on all rows on which both variables are populated. (In other words, there is no requirement that records with a null value in either ANRLO or ANRLOC be included when determining whether the one-to-one relationship requirement is satisfied.) On a given record, it is permissible for ANRLO, ANRLOC, or both to be null.""

ADaMIG-MD v1.0, Section 3.1: The MDBDS supports analysis needs by adding SPDEVID as a required key variable and USUBJID as a conditionally required variable. See the BDS class for further details.",,Added MEDICAL DEVICE BASIC DATA STRUCTURE to the Class,,,,,,,,,,,,,,,,,
,AD0344,344,1.3,2,BASIC DATA STRUCTURE; MEDICAL DEVICE BASIC DATA STRUCTURE,,,ANRHI,,,,,,"Within a parameter, there is more than one value of ANRHI for a given value of ANRHIC","Within a parameter, there is more than one value of ANRHI for a given value of ANRHIC",,,,,,,,,,,,ADaMIG v1.3; ADaMIG-MD v1.0,3.3.7; 3.1,Table 3.3.7.1,"ADaMIG v1.3, Section 3.3.7, Table 3.3.7.1: CDISC Notes for ANRHIC state: ""Within a given parameter, if there exists a row on which both ANRHIC and ANRHI are populated, then there must be a one-to-one relationship between ANRHIC and ANRHI on all rows on which both variables are populated. (In other words, there is no requirement that records with a null value in either ANRHI or ANRHIC be included when determining whether the one-to-one relationship requirement is satisfied.) On a given record, it is permissible for ANRHI, ANRHIC, or both to be null.""

ADaMIG-MD v1.0, Section 3.1: The MDBDS supports analysis needs by adding SPDEVID as a required key variable and USUBJID as a conditionally required variable. See the BDS class for further details.",,Added MEDICAL DEVICE BASIC DATA STRUCTURE to the Class,,,,,,,,,,,,,,,,,
,AD0345,345,1.3,2,BASIC DATA STRUCTURE; MEDICAL DEVICE BASIC DATA STRUCTURE,,,ANRHIC,,,,,,"Within a parameter, there is more than one value of ANRHIC for a given value of ANRHI","Within a parameter, there is more than one value of ANRHIC for a given value of ANRHI",,,,,,,,,,,,ADaMIG v1.3; ADaMIG-MD v1.0,3.3.7; 3.1,Table 3.3.7.1,"ADaMIG v1.3, Section 3.3.7, Table 3.3.7.1: CDISC Notes for ANRHIC state: ""Within a given parameter, if there exists a row on which both ANRHIC and ANRHI are populated, then there must be a one-to-one relationship between ANRHIC and ANRHI on all rows on which both variables are populated. (In other words, there is no requirement that records with a null value in either ANRHI or ANRHIC be included when determining whether the one-to-one relationship requirement is satisfied.) On a given record, it is permissible for ANRHI, ANRHIC, or both to be null.""

ADaMIG-MD v1.0, Section 3.1: The MDBDS supports analysis needs by adding SPDEVID as a required key variable and USUBJID as a conditionally required variable. See the BDS class for further details.",,Added MEDICAL DEVICE BASIC DATA STRUCTURE to the Class,,,,,,,,,,,,,,,,,
,AD0346,346,1.3,2,BASIC DATA STRUCTURE; MEDICAL DEVICE BASIC DATA STRUCTURE,,,"R2AyLO where y is an integer [1-99, not zero-padded]",,,,,,R2AyLO is present and AyLO is not present,"Within a parameter, there is more than one value of AyLO for a given value of AyLOC",R2AyLO is present,,,,,,,,,,,ADaMIG v1.3; ADaMIG-MD v1.0,3.3.4.1; 3.1,Table 3.3.4.1.1,"ADaMIG v1.3, Section 3.3.4.1, Table 3.3.4.1.1: CDISC Notes for R2AyLO state: ""AyLO must exist in the ADaM dataset.""

ADaMIG-MD v1.0, Section 3.1: The MDBDS supports analysis needs by adding SPDEVID as a required key variable and USUBJID as a conditionally required variable. See the BDS class for further details.",,Added MEDICAL DEVICE BASIC DATA STRUCTURE to the Class,,,,,,,,,,,,,,,,,
,AD0347,347,1.3,2,BASIC DATA STRUCTURE; MEDICAL DEVICE BASIC DATA STRUCTURE,,,"AyLO where y is an integer [1-99, not zero-padded]",,,,,,"Within a parameter, there is more than one value of AyLO for a given value of AyLOC","Within a parameter, there is more than one value of AyLO for a given value of AyLOC",,,,,,,,,,,,ADaMIG v1.3; ADaMIG-MD v1.0,3.3.7; 3.1,Table 3.3.7.1,"ADaMIG v1.3, Section 3.3.7, Table 3.3.7.1: CDISC Notes for AyLOC state: ""Within a given parameter, if there exists a row on which both AyLOC and AyLO are populated, then there must be a one-to-one relationship between AyLOC and AyLO on all rows on which both variables are populated. (In other words, there is no requirement that records with a null value in either AyLO or AyLOC be included when determining whether the one-to-one relationship requirement is satisfied.) On a given record, it is permissible for AyLO, AyLOC, or both to be null.""

ADaMIG-MD v1.0, Section 3.1: The MDBDS supports analysis needs by adding SPDEVID as a required key variable and USUBJID as a conditionally required variable. See the BDS class for further details.",,Added MEDICAL DEVICE BASIC DATA STRUCTURE to the Class,,,,,,,,,,,,,,,,,
,AD0348,348,1.3,2,BASIC DATA STRUCTURE; MEDICAL DEVICE BASIC DATA STRUCTURE,,,"AyLOC where y is an integer [1-99, not zero-padded]",,,,,,"Within a parameter, there is more than one value of AyLOC for a given value of AyLO","Within a parameter, there is more than one value of AyLOC for a given value of AyLO",,,,,,,,,,,,ADaMIG v1.3; ADaMIG-MD v1.0,3.3.7; 3.1,Table 3.3.7.1,"ADaMIG v1.3, Section 3.3.7, Table 3.3.7.1: CDISC Notes for AyLOC state: ""Within a given parameter, if there exists a row on which both AyLOC and AyLO are populated, then there must be a one-to-one relationship between AyLOC and AyLO on all rows on which both variables are populated. (In other words, there is no requirement that records with a null value in either AyLO or AyLOC be included when determining whether the one-to-one relationship requirement is satisfied.) On a given record, it is permissible for AyLO, AyLOC, or both to be null.""

ADaMIG-MD v1.0, Section 3.1: The MDBDS supports analysis needs by adding SPDEVID as a required key variable and USUBJID as a conditionally required variable. See the BDS class for further details.",,Added MEDICAL DEVICE BASIC DATA STRUCTURE to the Class,,,,,,,,,,,,,,,,,
,AD0349,349,1.3,2,BASIC DATA STRUCTURE; MEDICAL DEVICE BASIC DATA STRUCTURE,,,"R2AyHI where y is an integer [1-99, not zero-padded]",,,,,,R2AyHI is present and AyHI is not present,AyHI is not present,R2AyHI is present,,,,,,,,,,,ADaMIG v1.3; ADaMIG-MD v1.0,3.3.4.1; 3.1,Table 3.3.4.1.1,"ADaMIG v1.3, Section 3.3.4.1, Table 3.3.4.1.1: CDISC Notes for R2AyHI state: ""AyHI must exist in the ADaM dataset.""

ADaMIG-MD v1.0, Section 3.1: The MDBDS supports analysis needs by adding SPDEVID as a required key variable and USUBJID as a conditionally required variable. See the BDS class for further details.",,Added MEDICAL DEVICE BASIC DATA STRUCTURE to the Class,,,,,,,,,,,,,,,,,
,AD0350,350,1.3,2,BASIC DATA STRUCTURE; MEDICAL DEVICE BASIC DATA STRUCTURE,,,"AyHI where y is an integer [1-99, not zero-padded]",,,,,,"Within a parameter, there is more than one value of AyHI for a given value of AyHIC","Within a parameter, there is more than one value of AyHI for a given value of AyHIC",,,,,,,,,,,,ADaMIG v1.3; ADaMIG-MD v1.0,3.3.7; 3.1,Table 3.3.7.1,"ADaMIG v1.3, Section 3.3.7, Table 3.3.7.1: CDISC Notes for AyHIC state: ""Within a given parameter, if there exists a row on which both AyHIC and AyHI are populated, then there must be a one-to-one relationship between AyHIC and AyHI on all rows on which both variables are populated. (In other words, there is no requirement that records with a null value in either AyHI or AyHIC be included when determining whether the one-to-one relationship requirement is satisfied.) On a given record, it is permissible for AyHI, AyHIC, or both to be null.""

ADaMIG-MD v1.0, Section 3.1: The MDBDS supports analysis needs by adding SPDEVID as a required key variable and USUBJID as a conditionally required variable. See the BDS class for further details.",,Added MEDICAL DEVICE BASIC DATA STRUCTURE to the Class,,,,,,,,,,,,,,,,,
,AD0351,351,1.3,2,BASIC DATA STRUCTURE; MEDICAL DEVICE BASIC DATA STRUCTURE,,,"AyHIC where y is an integer [1-99, not zero-padded]",,,,,,"Within a parameter, there is more than one value of AyHIC for a given value of AyHI","Within a parameter, there is more than one value of AyHIC for a given value of AyHI",,,,,,,,,,,,ADaMIG v1.3; ADaMIG-MD v1.0,3.3.7; 3.1,Table 3.3.7.1,"ADaMIG v1.3, Section 3.3.7, Table 3.3.7.1: CDISC Notes for AyHIC state: ""Within a given parameter, if there exists a row on which both AyHIC and AyHI are populated, then there must be a one-to-one relationship between AyHIC and AyHI on all rows on which both variables are populated. (In other words, there is no requirement that records with a null value in either AyHI or AyHIC be included when determining whether the one-to-one relationship requirement is satisfied.) On a given record, it is permissible for AyHI, AyHIC, or both to be null.""

ADaMIG-MD v1.0, Section 3.1: The MDBDS supports analysis needs by adding SPDEVID as a required key variable and USUBJID as a conditionally required variable. See the BDS class for further details.",,Added MEDICAL DEVICE BASIC DATA STRUCTURE to the Class,,,,,,,,,,,,,,,,,
,AD0352,352,1.3,2,BASIC DATA STRUCTURE; MEDICAL DEVICE BASIC DATA STRUCTURE,,,"AyIND where y is an integer [1-99, not zero-padded]",,,,,,"AyIND is present and AyLO, AyHI, AyLOC, and AyHIC are all not present","AyLO, AyHI, AyLOC, and AyHIC are not present",AyIND is present,,,,,,,,,,,ADaMIG v1.3; ADaMIG-MD v1.0,3.3.7; 3.1,Table 3.3.7.1,"ADaMIG v1.3, Section 3.3.7, Table 3.3.7.1: CDISC Notes for AyIND state: ""Indicates relationship of AVAL to the analysis range variables AyLO and/or AyHI, or the relationship of AVALC to the analysis range variables AyLOC and/or AyHIC.""

ADaMIG-MD v1.0, Section 3.1: The MDBDS supports analysis needs by adding SPDEVID as a required key variable and USUBJID as a conditionally required variable. See the BDS class for further details.",,Added MEDICAL DEVICE BASIC DATA STRUCTURE to the Class,,,,,,,,,,,,,,,,,
,AD0353,353,1.2,1,BASIC DATA STRUCTURE,,,"ByIND where y is an integer [1-99, not zero-padded]",,,,,,"BASETYPE is present, ByIND is populated, and ByIND is not equal to AyIND where ABLFL is equal to Y for a given value of PARAMCD and BASETYPE for a subject",ByIND is not equal to AyIND where ABLFL is equal to Y for a given value of PARAMCD and BASETYPE for a subject,BASETYPE is present and ByIND is populated,,,,,,,,,,,ADaMIG v1.2,3.3.7,Table 3.3.7.1,"ADaMIG v1.2, Section 3.3.7, Table 3.3.7.1: CDISC Notes for ByIND state: ""AyIND of the baseline record identified by ABLFL.""",,,,,,,,,,,,,,,,,,,
,AD0354,354,1.3,1,BASIC DATA STRUCTURE,,,"ByIND where y is an integer [1-99, not zero-padded]",,,,,,"BASETYPE is not present, ByIND is populated, and ByIND is not equal to AyIND where ABLFL is equal to Y for a given value of PARAMCD for a subject",ByIND is not equal to AyIND where ABLFL is equal to Y for a given value of PARAMCD for a subject,BASETYPE is not present and ByIND is populated,,,,,,,,,,,ADaMIG v1.3,3.3.7,Table 3.3.7.1,"ADaMIG v1.3, Section 3.3.7, Table 3.3.7.1: CDISC Notes for ByIND state: ""AyIND of the baseline record identified by ABLFL.""",,,,,,,,,,,,,,,,,,,
,AD0355,355,1.3,1,SUBJECT LEVEL ANALYSIS DATASET,,,"REGIONy where y is an integer [1-99, not zero-padded]",,,,,,"There is more than one value of REGIONy for a given value of REGIONyN, considering only those rows on which both variables are populated",There is more than one value of REGIONy for a given value of REGIONyN,On rows where both REGIONy and REGIONyN are both populated.,,,,,,,,,,,ADaMIG v1.3,3.2,Table 3.2.1,"ADaMIG v1.3, Section 3.2, Table 3.2.1: CDISC Notes for REGIONyN state: ""There must be a one-to-one relationship between REGIONyN and REGIONy within a study.""",,,,,,,,,,,,,,,,,,,
,AD0356,356,1.3,1,SUBJECT LEVEL ANALYSIS DATASET,,,"REGIONyN where y is an integer [1-9, not zero-padded]",,,,,,"There is more than one value of REGIONyN for a given value of REGIONy, considering only those rows on which both variables are populated",There is more than one value of REGIONyN for a given value of REGIONy,On rows where both REGIONyN and REGIONy are both populated.,,,,,,,,,,,ADaMIG v1.3,3.2,Table 3.2.1,"ADaMIG v1.3, Section 3.2, Table 3.2.1: CDISC Notes for REGIONyN state: ""There must be a one-to-one relationship between REGIONyN and REGIONy within a study.""",,,,,,,,,,,,,,,,,,,
,AD0359,359,1.3,1,SUBJECT LEVEL ANALYSIS DATASET,,,DTHCAUS,,,,,,"There is more than one value of DTHCAUS for a given value of DTHCAUSN, considering only those rows on which both variables are populated",There is more than one value of DTHCAUS for a given value of DTHCAUSN,On rows where both DTHCAUS and DTHCAUSN are both populated.,,,,,,,,,,,ADaMIG v1.3,3.2,Table 3.2.8,"ADaMIG v1.3, Section 3.2, Table 3.2.8: CDISC Notes for DTHCAUSN state: ""There must be a one-to-one relationship between DTHCAUSN and DTHCAUS within a study.""",,,,,,,,,,,,,,,,,,,
,AD0360,360,1.3,1,SUBJECT LEVEL ANALYSIS DATASET,,,DTHCAUSN,,,,,,"There is more than one value of DTHCAUSN for a given value of DTHCAUS, considering only those rows on which both variables are populated",There is more than one value of DTHCAUSN for a given value of DTHCAUS,On rows where both DTHCAUSN and DTHCAUS are both populated.,,,,,,,,,,,ADaMIG v1.3,3.2,Table 3.2.8,"ADaMIG v1.3, Section 3.2, Table 3.2.8: CDISC Notes for DTHCAUSN state: ""There must be a one-to-one relationship between DTHCAUSN and DTHCAUS within a study.""",,,,,,,,,,,,,,,,,,,
,AD0361,361,1.3,1,ALL,,,ASTDT,,,,,,"The value of ASTDT is greater than the value of AENDT, considering only those rows on which both variables are populated",The value of ASTDT is greater than the value of AENDT,Considering only those rows on which both ASTDT and AENDT are populated,,,,,,,,,,,ADaMIG v1.3,3.1.2,6; 7,"ADaMIG v1.3, Section 3.1.2, Item 6: Names of timing start variables end with an S followed by the characters indicating the type of timing (i.e., SDT, STM, SDTM), unless otherwise specified elsewhere in Section 3

ADaMIG v1.3, Section 3.1.2, Item 7: Names of timing end variables end with an E followed by the characters indicating the type of timing (i.e., EDT, ETM, EDTM), unless otherwise specified elsewhere in Section 3.",,,,,,,,,,,,,,,,,,,
,AD0362,362,1.3,1,ALL,,,ASTDTM,,,,,,"The value of ASTDTM is greater than the value of AENDTM, considering only those rows on which both variables are populated",The value of ASTDTM is greater than the value of AENDTM,Considering only those rows on which both ASTDTM and AENDTM are populated,,,,,,,,,,,ADaMIG v1.3,3.1.2,6; 7,"ADaMIG v1.3, Section 3.1.2, Item 6: Names of timing start variables end with an S followed by the characters indicating the type of timing (i.e., SDT, STM, SDTM), unless otherwise specified elsewhere in Section 3

ADaMIG v1.3, Section 3.1.2, Item 7: Names of timing end variables end with an E followed by the characters indicating the type of timing (i.e., EDT, ETM, EDTM), unless otherwise specified elsewhere in Section 3.",,,,,,,,,,,,,,,,,,,
CDISC.ADaMIG.AD0363,AD0363,363,1.1,1,BASIC DATA STRUCTURE; OCCURRENCE DATA STRUCTURE,,,ONTRTFL,,,,,,ONTRTFL is not equal to Y or null,ONTRTFL is not equal to Y or null,,,,,,,,,,,,ADaMIG v1.1,3.3.8,Table 3.3.8.1,"ADaMIG v1.1, Section 3.3.8, Table 3.3.8.1: Code List / Controlled Terms for ONTRTFL have allowable values of: ""Y""",,,,,,,,,,,,,,,,,,,
CDISC.ADaMIG.AD0364; CDISC.ADaMIG.AD0364; CDISC.ADaMIG.AD0364; CDISC.ADaMIG.AD0364; CDISC.ADaMIG.AD0364; CDISC.ADaMIG.AD0364,AD0364,364,1.3,2,OCCURRENCE DATA STRUCTURE; MEDICAL DEVICE OCCURRENCE DATA STRUCTURE,,,DOSEON; DOSCUMA,,,,,,DOSEON or DOSCUMA is present and DOSEU is not present,DOSEU is not present,DOSEON or DOSCUMA is present,,,,,,,,,,,OCCDS v1.0; OCCDS v1.1; ADaMIG-MD v1.0,3.2.7; 3.2.7; 3.1,Table 3.2.7.1; Table 3.2.7.1,"OCCDS v1.0, Section 3.2.7, Table 3.2.7.1: CDISC Notes for DOSEU state: ""Conditional on whether DOSEON and/or DOSCUMA are included.""

OCCDS v1.1, Section 3.2.7, Table 3.2.7.1: CDISC Notes for DOSEU state: ""Conditional on whether DOSEON and/or DOSCUMA are included.""

ADaMIG-MD v1.0, Section 3.1: The MDOCCDS supports analysis needs by adding SPDEVID as a required identifier and allowing USUBJID be a conditionally required variable. See the OCCDS class for further details.",,Added MEDICAL DEVICE OCCURRENCE DATA STRUCTURE to the Class,,,,,,,,,,,,,,,,,
,AD0365,365,1.3,1,SUBJECT LEVEL ANALYSIS DATASET,,,,,,,,,SDTM.EX is present and neither TRTEDT or TRTEDTM are present,TRTEDT or TRTEDTM is not present,SDTM.EX is present,,,,,,,,,,,ADaMIG v1.3,3.2,Table 3.2.6,"ADaMIG v1.3, Section 3.2, Table 3.2.6: TRTEDT and/or TRTEDTM are required if there is an investigational product.",,,,,,,,,,,,,,,,,,,
,AD0366,366,1.3,1,SUBJECT LEVEL ANALYSIS DATASET,,,RANDFL,,,,,,RANDDT is not present when RANDFL is equal to Y for at least one record,RANDDT is not present,RANDFL is equal to Y for at least one record,,,,,,,,,,,ADaMIG v1.3,3.2,Table 3.2.8,"ADaMIG v1.3, Section 3.2, Table 3.2.8: CDISC Notes for RANDDT state: ""Required in randomized trials""",,,,,,,,,,,,,,,,,,,
,AD0367,367,1.3,1,SUBJECT LEVEL ANALYSIS DATASET,,,ACTARM,,,,,,The value of ADSL.USUBJID is equal to the value of DM.USUBJID and ADSL.ACTARM is not equal to DM.ACTARM,ADSL.ACTARM is not equal to DM.ACTARM,The value of ADSL.USUBJID is equal to the value of DM.USUBJID,,,,,,,,,,,ADaMIG v1.3,3.2,Table 3.2.4,"ADaMIG v1.3, Section 3.2, Table 3.2.4: DM.ARM",,,,,,,,,,,,,,,,,,,
,AD0368,368,1.3,1,SUBJECT LEVEL ANALYSIS DATASET,,,,,,,,,TRxxAGy is not present and both TRxxPGy and TRTxxA are present,"TRxxAGy is not present, where xx is an integer [01-99, zero-padded] and y is an integer [1-9, not zero-padded]",TRxxPGy and TRTxxA are present,,,,,,,,,,,ADaMIG v1.3,3.2,Table 3.2.4,"ADaMIG v1.3, Section 3.2, Table 3.2.4: Required when TRxxPGy is present and TRTxxA is present.",,,,,,,,,,,,,,,,,,,
,AD0369,369,1.3,2,BASIC DATA STRUCTURE; MEDICAL DEVICE BASIC DATA STRUCTURE; OCCURRENCE DATA STRUCTURE; MEDICAL DEVICE OCCURRENCE DATA STRUCTURE,,,*DT; *DTM,,,,,,*DTF is populated and neither *DT nor *DTM is populated,Neither *DT nor *DTM is populated,*DTF is populated,,,,,,,,,,,ADaMIG v1.3; OCCDS v1.0; OCCDS v1.1; ADaMIG-MD v1.0,3.1.3; 3.2.4; 3.2.4; 3.1,1; Table 3.2.4.1; Table 3.2.4.1,"ADaMIG v1.3, Section 3.1.3, Item 1: As described in Table 3.1.5.1, variables whose names end in DTF are date imputation flags. *DTF variables represent the highest level of imputation of the *DT variable based on the source SDTM dataset DTC variable. *DTF = Y if the year is imputed. *DTF = M if year is present and month is imputed. *DTF = D if only day is imputed. *DTF = null if *DT equals the SDTM dataset DTC variable date part equivalent. If a date was imputed, *DTF must be populated and is required. Both *DTF and *TMF may be needed to describe the level of imputation in *DTM if imputation was done. Note that the list of examples in Table 3.1.3.1 is not exhaustive.

OCCDS v1.0, Section 3.2.4, Table 3.2.4.1: CDISC Notes for ASTDTF state: ""Conditional on whether any imputation is done for the start date.""

OCCDS v1.1, Section 3.2.4, Table 3.2.4.1: CDISC Notes for ASTDTF state: ""Conditional on whether ASTDT (or the date part of ASTDTM) was imputed.""

ADaMIG-MD v1.0, Section 3.1: MDBDS and MDOCCDS support analysis needs by adding SPDEVID as a required key variable and USUBJID as a conditionally required variable. See the BDS and OCCDS class for further details.",,Added MEDICAL DEVICE BASIC DATA STRUCTURE and MEDICAL DEVICE OCCURRENCE DATA STRUCTURE to the Class,,,,,,,,,,,,,,,,,
,AD0370,370,1.3,2,BASIC DATA STRUCTURE; MEDICAL DEVICE BASIC DATA STRUCTURE; OCCURRENCE DATA STRUCTURE; MEDICAL DEVICE OCCURRENCE DATA STRUCTURE,,,*TM; *DTM,,,,,,*TMF is populated and neither *TM nor *DTM is populated,Neither *TM nor *DTM is populated,*TMF is populated,,,,,,,,,,,ADaMIG v1.3; OCCDS v1.0; OCCDS v1.1; ADaMIG-MD v1.0,3.1.3; 3.2.4; 3.2.4; 3.1,2; Table 3.2.4.1; Table 3.2.4.1,"ADaMIG v1.3, Section 3.1.3, Item 2: As described in Table 3.1.5.1, variables whose names end in TMF are time imputation flags. *TMF variables represent the level of imputation of the *TM (and *DTM) variable based on the source SDTM dataset DTC variable. *TMF = H if the entire time is imputed. *TMF = M if minutes and seconds are imputed. *TMF = S if only seconds are imputed. *TMF = null if *TM equals the SDTM DTC variable time part equivalent. For a given SDTM DTC variable, if only hours and minutes are ever collected, and seconds are imputed in *DTM as 00, then it is not necessary to set *TMF to ""S"". However if seconds are generally collected but are missing in a given value of the DTC variable and imputed as 00, or if a collected value of seconds is changed in the creation of *DTM, then *TMF should be set to ""S"". If a time was imputed *TMF must be populated and is required. Both *DTF and *TMF may be needed to describe the level of imputation in *DTM if imputation was done.

OCCDS v1.0, Section 3.2.4, Table 3.2.4.1: CDISC Notes for ASTTMF state: ""Conditional on whether any imputation is done for the start time.""

OCCDS v1.1, Section 3.2.4, Table 3.2.4.1: CDISC Notes for ASTTMF state: ""Conditional on whether ASTTM (or the time part of ASTDTM) was imputed.""

ADaMIG-MD v1.0, Section 3.1: MDBDS and MDOCCDS support analysis needs by adding SPDEVID as a required key variable and USUBJID as a conditionally required variable. See the BDS and OCCDS class for further details.",,Added MEDICAL DEVICE BASIC DATA STRUCTURE and MEDICAL DEVICE OCCURRENCE DATA STRUCTURE to the Class,,,,,,,,,,,,,,,,,
CDISC.ADaMIG.AD0373,AD0373,373,1.3,1,BASIC DATA STRUCTURE; MEDICAL DEVICE BASIC DATA STRUCTURE,TIME-TO-EVENT; MEDICAL DEVICE TIME-TO-EVENT,,,,,,,,CNSR is not present,CNSR is not present,,,,,,,,,,,,ADTTE v1.0,4,Table 4.2,"ADTTE v1.0, Section 4, Table 4.2: CNSR is a required variable for a time-to-event analysis dataset, though it is a conditionally required variable with respect to the ADaM BDS.",,,,,,,,,,,,,,,,,,,
,AD0374,374,1.3,1,BASIC DATA STRUCTURE; MEDICAL DEVICE BASIC DATA STRUCTURE,TIME-TO-EVENT; MEDICAL DEVICE TIME-TO-EVENT,,,,,,,,AVAL is not present,AVAL is not present,,,,,,,,,,,,ADTTE v1.0,4,Table 4.2,"ADTTE v1.0, Section 4, Table 4.2: AVAL has Core=Req.",,,,,,,,,,,,,,,,,,,
,AD0375,375,1.3,1,ALL,,,"*GRy where y is an integer [1-99, not zero-padded]",,,,,,"On a given record, a variable which has a suffix of GRyN is populated and a variable with the same root name and suffix of GRy is not populated",*GRy is not populated,*GRyN is populated,,,,,,,,,,,ADaMIG v1.3,3.1.1,5; 6,"ADaMIG v1.3, Section 3.1.1, Item 5: For variable pairs designated as having a one-to-one relationship within a specified scope (e.g., within a parameter, within a study), if both variables are present in the dataset and there exists a row in that scope on which both variables are populated, then there must be a one-to-one relationship between the two variables on all rows within the scope on which both variables are populated. The scope noted in this document should be considered the minimum level for the mapping; it does not preclude the producer from using a broader level of scope. For example, if a one-to-one relationship is specified as within a PARAM, the producer may elect to use the same one-to-one relationship across all PARAMs within the dataset or study. In addition, note that ""within a parameter"" means ""within a parameter within a dataset.""

ADaMIG v1.3, Section 3.1.1, Item 6: In a pair of corresponding variables (e.g., TRTP and TRTPN), the primary or most commonly used variable does not have the suffix or extension (i.e., N for numeric or C for character). The relevant suffix is used only on the name of the secondary member of the variable pair. For example, in the (TRTP, TRTPN) pair, the primary variable, TRTP, is character, but it is not named TRTPC. Similarly in the (APERIOD, APERIODC) pair, the primary variable, APERIOD, is numeric, but it is not named APERIODN. When a secondary variable is included in the dataset, then the primary variable must also be included. If both variables of a variable pair are present, there must be a one-to-one relationship between the values of the two variables, as described in Item 5 above.",,,,,,,,,,,,,,,,,,,
,AD0376,376,1.3,1,ALL,,,"*GRyN where y is an integer [1-99, not zero-padded]",,,,,,"On a given record, a variable which has a suffix of GRy is populated and a variable with the same root name and suffix of GRyN is not populated",*GRyN is not populated,*GRy is populated,,,,,,,,,,,ADaMIG v1.3,3.1.1,5; 6,"ADaMIG v1.3, Section 3.1.1, Item 5: For variable pairs designated as having a one-to-one relationship within a specified scope (e.g., within a parameter, within a study), if both variables are present in the dataset and there exists a row in that scope on which both variables are populated, then there must be a one-to-one relationship between the two variables on all rows within the scope on which both variables are populated. The scope noted in this document should be considered the minimum level for the mapping; it does not preclude the producer from using a broader level of scope. For example, if a one-to-one relationship is specified as within a PARAM, the producer may elect to use the same one-to-one relationship across all PARAMs within the dataset or study. In addition, note that ""within a parameter"" means ""within a parameter within a dataset.""

ADaMIG v1.3, Section 3.1.1, Item 6: In a pair of corresponding variables (e.g., TRTP and TRTPN), the primary or most commonly used variable does not have the suffix or extension (i.e., N for numeric or C for character). The relevant suffix is used only on the name of the secondary member of the variable pair. For example, in the (TRTP, TRTPN) pair, the primary variable, TRTP, is character, but it is not named TRTPC. Similarly in the (APERIOD, APERIODC) pair, the primary variable, APERIOD, is numeric, but it is not named APERIODN. When a secondary variable is included in the dataset, then the primary variable must also be included. If both variables of a variable pair are present, there must be a one-to-one relationship between the values of the two variables, as described in Item 5 above.",,,,,,,,,,,,,,,,,,,
,AD0377,377,1.3,2,SUBJECT LEVEL ANALYSIS DATASET,,,"TRTxxPN where xx is an integer [01-99, zero-padded]",,,,,,"On a given record, TRTxxP is populated and TRTxxPN is not populated","On a given record, TRTxxP is populated and TRTxxPN is not populated",TRTxxP and TRTxxPN are present,,,,,,,,,,,ADaMIG v1.3,3.2,Table 3.2.4,"ADaMIG v1.3, Section 3.2, Table 3.2.4: There must be a one-to-one relationship between TRTxxPN and TRTxxP within a study.  TRTxxPN cannot be present unless TRTxxP is also present. When TRTxxP and TRTxxPN are present, then on a given record, either both must be populated or both must be null.",,Fixed a typo in the Rule,,,,,,,,,,,,,,,,,
,AD0378,378,1.3,2,SUBJECT LEVEL ANALYSIS DATASET,,,"TRTxxP where xx is an integer [01-99, zero-padded]",,,,,,"On a given record, TRTxxPN is populated and TRTxxP is not populated","On a given record, TRTxxPN is populated and TRTxxP is not populated",TRTxxPN and TRTxxP are present,,,,,,,,,,,ADaMIG v1.3,3.2,Table 3.2.4,"ADaMIG v1.3, Section 3.2, Table 3.2.4: There must be a one-to-one relationship between TRTxxPN and TRTxxP within a study.  TRTxxPN cannot be present unless TRTxxP is also present. When TRTxxP and TRTxxPN are present, then on a given record, either both must be populated or both must be null.",,Fixed a typo in the Rule,,,,,,,,,,,,,,,,,
,AD0379,379,1.3,2,BASIC DATA STRUCTURE; MEDICAL DEVICE BASIC DATA STRUCTURE,,,BTOXGR,,,,,,"On a given record, BTOXGRN is populated and BTOXGR is not populated",BTOXGR is not populated,BTOXGRN is populated,,,,,,,,,,,ADaMIG v1.3; ADaMIG-MD v1.0,3.3.7; 3.1,Table 3.3.7.1,"ADaMIG v1.3, Section 3.3.7, Table 3.3.7.1: There must be a one-to-one relationship between BTOXGRN and BTOXGR within a parameter.  BTOXGRN cannot be present unless BTOXGR is also present. When BTOXGR and BTOXGRN are present, then on a given record, either both must be populated or both must be null.

ADaMIG-MD v1.0, Section 3.1: The MDBDS supports analysis needs by adding SPDEVID as a required key variable and USUBJID as a conditionally required variable. See the BDS class for further details.",,Added MEDICAL DEVICE BASIC DATA STRUCTURE to the Class,,,,,,,,,,,,,,,,,
,AD0380,380,1.3,2,BASIC DATA STRUCTURE; MEDICAL DEVICE BASIC DATA STRUCTURE,,,BTOXGRN,,,,,,"On a given record, BTOXGR is populated and BTOXGRN is not populated",BTOXGRN is not populated,BTOXGR is populated,,,,,,,,,,,ADaMIG v1.3; ADaMIG-MD v1.0,3.3.7; 3.1,Table 3.3.7.1,"ADaMIG v1.3, Section 3.3.7, Table 3.3.7.1: There must be a one-to-one relationship between BTOXGRN and BTOXGR within a parameter.  BTOXGRN cannot be present unless BTOXGR is also present. When BTOXGR and BTOXGRN are present, then on a given record, either both must be populated or both must be null.

ADaMIG-MD v1.0, Section 3.1: The MDBDS supports analysis needs by adding SPDEVID as a required key variable and USUBJID as a conditionally required variable. See the BDS class for further details.",,Added MEDICAL DEVICE BASIC DATA STRUCTURE to the Class,,,,,,,,,,,,,,,,,
,AD0381,381,1.3,2,BASIC DATA STRUCTURE; MEDICAL DEVICE BASIC DATA STRUCTURE,,,BTOXGR,,,,,,"Within a parameter, there is more than one value of BTOXGR for a given value of BTOXGRN, considering only those rows on which both variables are populated","Within a parameter, there is more than one value of BTOXGR for a given value of BTOXGRN",On rows where both BTOXGR and BTOXGRN are both populated,,,,,,,,,,,ADaMIG v1.3; ADaMIG-MD v1.0,3.3.7; 3.1,Table 3.3.7.1,"ADaMIG v1.3, Section 3.3.7, Table 3.3.7.1: There must be a one-to-one relationship between BTOXGRN and BTOXGR within a parameter.  BTOXGRN cannot be present unless BTOXGR is also present. When BTOXGR and BTOXGRN are present, then on a given record, either both must be populated or both must be null.

ADaMIG-MD v1.0, Section 3.1: The MDBDS supports analysis needs by adding SPDEVID as a required key variable and USUBJID as a conditionally required variable. See the BDS class for further details.",,Added MEDICAL DEVICE BASIC DATA STRUCTURE to the Class,,,,,,,,,,,,,,,,,
