Core-ID,conformance_id,CDISC Rule ID,Error Message,Description,Standard Name,Standard Version,Scope,Executability,Status,std,rids,rid
CORE-000560,AD0001,1,Dataset ADSL does not exist,The ADSL dataset must exist,ADaMIG,"1.3, 1.2, 1.1, 1.0","{""Domains"":{""Include"":[""ALL""]},""Data_Structures"":{""Include"":[""ALL""]}}",Fully Executable,Published,['ADaMIG'],['1'],['1']
CDISC.ADaMIG.AD0005,AD0005,5,"Variable with a suffix of FL does not has a value  Y, N or null","A variable with a suffix of FL must have a value Y, N or null",ADaMIG,"1.3, 1.2, 1.1, 1.0","{""Classes"":{""Include"":[""ALL""]},""Subclasses"":{""Include"":[""ALL""]},""Data_Structures"":{""Include"":[""ADAM OTHER"",""BASIC DATA STRUCTURE"",""OCCURRENCE DATA STRUCTURE"",""SUBJECT LEVEL ANALYSIS DATASET""]}}",Fully Executable,Draft,['ADaMIG'],['5'],['5']
CDISC.ADaMIG.AD0006,AD0006,6,"Variable with a suffix of FN does must have the value  Y, N or null","'A variable with a suffix of FN must have a value that is not 0, 1 or null'",ADaMIG,"1.3, 1.2, 1.1, 1.0","{""Subclasses"":{""Include"":[""ALL""]},""Data_Structures"":{""Include"":[""ALL""]}}",Fully Executable,Draft,['ADaMIG'],['6'],['6']
CDISC.ADaMIG.AD0007,AD0007,7,"Variable with a suffix of FN does must have the value  Y, N or null","'A variable with a suffix of FN must have a value that is not 0, 1 or null'",ADaMIG,"1.3, 1.2, 1.1, 1.0","{""Subclasses"":{""Include"":[""ALL""]},""Data_Structures"":{""Include"":[""ALL""]}}",Fully Executable,Draft,['ADaMIG'],['7'],['7']
CDSIC.ADaMIG.AD0010,AD0010,10,A variable with a suffix of FL is equal to Y and a variable with the same root and a suffix of FN is not equal to 1,'A variable with a suffix of FL is equal to Y and a variable with the same root and a suffix of FN is not equal to 1',ADaMIG,"1.3, 1.2, 1.1, 1.0","{""Classes"":{""Include"":[""ALL""]},""Data_Structures"":{""Include"":[""ALL""]}}",Fully Executable,Draft,['ADaMIG'],['10'],['10']
CDISC.ADaMIG.AD0013,AD0013,13,Variable name must be less than 8 charatcters,,ADaMIG,"1.3, 1.2, 1.1, 1.0","{""Datasets"":{""Include"":[""ALL""]},""Domains"":{""Include"":[""ALL""],""include_split_datasets"":true},""Subclasses"":{""Include"":[""ALL""]},""Data_Structures"":{""Include"":[""ALL""]}}",Fully Executable,Draft,['ADaMIG'],['13'],['13']
CDISC.ADaMIG.AD0014,AD0014,14,A variable name does not start with a letter (A-Z),,"Model v2.1, ADaMIG","1.3, 1.2, 1.1, 1.0","{""Datasets"":{""Include"":[""ALL""]},""Domains"":{""Include"":[""ALL""],""include_split_datasets"":true},""Subclasses"":{""Include"":[""ALL""]},""Data_Structures"":{""Include"":[""ALL""]}}",Fully Executable,Draft,"['Model v2.1', 'ADaMIG']",['14'],['14']
CDISC.ADaMIG.AD0016,AD0016,16,Label must be less than 40 charatcters,,ADaMIG,"1.3, 1.2, 1.1, 1.0","{""Datasets"":{""Include"":[""ALL""]},""Domains"":{""Include"":[""ALL""],""include_split_datasets"":true},""Subclasses"":{""Include"":[""ALL""]},""Data_Structures"":{""Include"":[""ALL""]}}",Fully Executable,Draft,['ADaMIG'],['16'],['16']
CDISC.ADaMIG.AD0017,AD0017,17,Variable value is greather than 200 characters long,Variable Value must not be greather than 200 characters long,ADaMIG,"1.3, 1.2, 1.1, 1.0","{""Datasets"":{""Include"":[""ALL""]},""Domains"":{""Include"":[""ALL""],""include_split_datasets"":true},""Subclasses"":{""Include"":[""ALL""]},""Data_Structures"":{""Include"":[""ALL""]}}",Fully Executable,Draft,['ADaMIG'],['17'],['17']
CDISC.ADAMIG.AD0019,AD0019,19,"The values of COMPLFL are not following the ""Y, N"" codelist",Raise an error when COMPLFL is present and has a value that is not Y or N,ADaMIG,"1.3, 1.2, 1.1, 1.0","{""Data_Structures"":{""Include"":[""SUBJECT LEVEL ANALYSIS DATASET""]}}",Fully Executable,Draft,['ADaMIG'],['19'],['19']
CDISC.ADAMIG.AD0020,AD0020,20,"The values of FASFL are not following the ""Y, N"" codelist",Raise an error when FASFL is present and has a value that is not Y or N,ADaMIG,"1.3, 1.2, 1.1, 1.0","{""Data_Structures"":{""Include"":[""SUBJECT LEVEL ANALYSIS DATASET""]}}",Fully Executable,Draft,['ADaMIG'],['20'],['20']
CDISC.ADAMIG.AD0021,AD0021,21,"The values of ITTFL are not following the ""Y, N"" codelist",Raise an error when ITTFL is present and has a value that is not Y or N,ADaMIG,"1.3, 1.2, 1.1, 1.0","{""Data_Structures"":{""Include"":[""SUBJECT LEVEL ANALYSIS DATASET""]}}",Fully Executable,Draft,['ADaMIG'],['21'],['21']
CDISC.ADAMIG.AD0022,AD0022,22,"The values of PPROTFL are not following the ""Y, N"" codelist",Raise an error when PPROTFL is present and has a value that is not Y or N,ADaMIG,"1.3, 1.2, 1.1, 1.0","{""Data_Structures"":{""Include"":[""SUBJECT LEVEL ANALYSIS DATASET""]}}",Fully Executable,Draft,['ADaMIG'],['22'],['22']
CDISC.ADAMIG.AD0023,AD0023,23,"The values of SAFFL are not following the ""Y, N"" codelist",Raise an error when SAFFL is present and has a value that is not Y or N,ADaMIG,"1.3, 1.2, 1.1, 1.0","{""Data_Structures"":{""Include"":[""SUBJECT LEVEL ANALYSIS DATASET""]}}",Fully Executable,Draft,['ADaMIG'],['23'],['23']
CDISC.ADAMIG.AD0024,AD0024,24,"The values of RANDFL are not following the ""Y, N"" codelist",Raise an error when RANDFL is present and has a value that is not Y or N,ADaMIG,"1.3, 1.2, 1.1, 1.0","{""Data_Structures"":{""Include"":[""SUBJECT LEVEL ANALYSIS DATASET""]}}",Fully Executable,Draft,['ADaMIG'],['24'],['24']
CDISC.ADAMIG.AD0025,AD0025,25,"The values of ENRLFL are not following the ""Y, N"" codelist",Raise an error when ENRLFL is present and has a value that is not Y or N,ADaMIG,"1.3, 1.2, 1.1, 1.0","{""Data_Structures"":{""Include"":[""SUBJECT LEVEL ANALYSIS DATASET""]}}",Fully Executable,Draft,['ADaMIG'],['25'],['25']
CDISC.ADAMIG.AD0026,AD0026,26,Some values of COMPLFN are not equal to 1 or 0,Raise an error when COMPLFN is present and has a value that is not 1 or 0,ADaMIG,"1.3, 1.2, 1.1, 1.0","{""Data_Structures"":{""Include"":[""SUBJECT LEVEL ANALYSIS DATASET""]}}",Fully Executable,Draft,['ADaMIG'],['26'],['26']
CDISC.ADAMIG.AD0027,AD0027,27,Some values of FASFN are not equal to 1 or 0,Raise an error when FASFN is present and has a value that is not 1 or 0,ADaMIG,"1.3, 1.2, 1.1, 1.0","{""Data_Structures"":{""Include"":[""SUBJECT LEVEL ANALYSIS DATASET""]}}",Fully Executable,Draft,['ADaMIG'],['27'],['27']
CDISC.ADAMIG.AD0028,AD0028,28,Some values of ITTFN are not equal to 1 or 0,Raise an error when ITTFN is present and has a value that is not 1 or 0,ADaMIG,"1.3, 1.2, 1.1, 1.0","{""Data_Structures"":{""Include"":[""SUBJECT LEVEL ANALYSIS DATASET""]}}",Fully Executable,Draft,['ADaMIG'],['28'],['28']
CDISC.ADAMIG.AD0029,AD0029,29,Some values of PPROTFN are not equal to 1 or 0,Raise an error when PPROTFN is present and has a value that is not 1 or 0,ADaMIG,"1.3, 1.2, 1.1, 1.0","{""Data_Structures"":{""Include"":[""SUBJECT LEVEL ANALYSIS DATASET""]}}",Fully Executable,Draft,['ADaMIG'],['29'],['29']
CDISC.ADAMIG.AD0030,AD0030,30,Some values of SAFFN are not equal to 1 or 0,Raise an error when SAFFN is present and has a value that is not 1 or 0,ADaMIG,"1.3, 1.2, 1.1, 1.0","{""Data_Structures"":{""Include"":[""SUBJECT LEVEL ANALYSIS DATASET""]}}",Fully Executable,Draft,['ADaMIG'],['30'],['30']
CDISC.ADAMIG.AD0031,AD0031,31,Some values of RANDFN are not equal to 1 or 0,Raise an error when RANDFN is present and has a value that is not 1 or 0,ADaMIG,"1.3, 1.2, 1.1, 1.0","{""Data_Structures"":{""Include"":[""SUBJECT LEVEL ANALYSIS DATASET""]}}",Fully Executable,Draft,['ADaMIG'],['31'],['31']
CDISC.ADAMIG.AD0032,AD0032,32,Some values of ENRLFN are not equal to 1 or 0,Raise an error when ENRLFN is present and has a value that is not 1 or 0,ADaMIG,"1.3, 1.2, 1.1, 1.0","{""Data_Structures"":{""Include"":[""SUBJECT LEVEL ANALYSIS DATASET""]}}",Fully Executable,Draft,['ADaMIG'],['32'],['32']
CDISC.ADAMIG.AD0041,AD0041,41,Value of --DT  do not have a date format,Raise an error when a variable ends with DT and does not have a date format,ADAMIG,1.3,"{""Classes"":{""Include"":[""ALL""]},""Domains"":{""Include"":[""ADLB""]}}",,Draft,['ADAMIG'],['41'],['41']
CDISC.ADAMIG.AD0046,AD0046,46,Value of 0 is not permitted with variable ending with suffix DY,Raise an error when a variable ends with DY and has value equl to 0,ADAMIG,"1.3, 1.2, 1.1, 1.0","{""Classes"":{""Include"":[""ALL""]},""Domains"":{""Include"":[""ALL""]}}",,Draft,['ADAMIG'],['46'],['46']
CDISC.ADAMIG.AD0047,AD0047,47,Variable SITEID is not present within dataset ADSL,Variable SITEID should be present in dataset ADSL,ADaMIG,"1.3, 1.2, 1.1, 1.0","{""Data_Structures"":{""Include"":[""SUBJECT LEVEL ANALYSIS DATASET""]},""Datasets"":{""Include"":[""ADSL""]}}",Fully Executable,Draft,['ADaMIG'],['47'],['47']
CDISC.ADaMIG.AD0049,AD0049,49,Variable AGE is not present in ADSL,Variable AGE must be present in dataset ADSL,ADaMIG,"1.0, 1.1, 1.2, 1.3","{""Datasets"":{""Include"":[""ADSL""]},""Data_Structures"":{""Include"":[""SUBJECT LEVEL ANALYSIS DATASET""]}}",Fully Executable,Draft,['ADaMIG'],['49'],['49']
CDISC.ADaMIG.AD050,AD0050,50,AGEU is not present in ADSL,,ADaMIG,"1.0, 1.1, 1.2, 1.3","{""Data_Structures"":{""Include"":[""SUBJECT LEVEL ANALYSIS DATASET""]}}",Fully Executable,Draft,['ADaMIG'],['50'],['50']
CDISC.ADaMIG.AD051,AD0051,51,SEX is not present in ADSL,,ADaMIG,"1.0, 1.1, 1.2, 1.3","{""Data_Structures"":{""Include"":[""SUBJECT LEVEL ANALYSIS DATASET""]}}",Fully Executable,Draft,['ADaMIG'],['51'],['51']
CDISC.ADaMIG.AD052,AD0052,52,RACE is not present in ADSL,,ADaMIG,"1.0, 1.1, 1.2, 1.3","{""Data_Structures"":{""Include"":[""SUBJECT LEVEL ANALYSIS DATASET""]}}",Fully Executable,Draft,['ADaMIG'],['52'],['52']
CDISC.ADAMIG.AD0053,AD0053,53,The values of USUBJID are not present in SDTM.DM,Raise an error when the values of USUBJID are not present in SDTM.DM,ADaMIG,1.3,"{""Classes"":{""Include"":[""ALL""]},""Data_Structures"":{""Include"":[""ADAM OTHER"",""ALL""]},""Domains"":{""Include"":[""ADSL"",""DM""]}}",Fully Executable,Draft,['ADaMIG'],['53'],['53']
CDISC.ADaMIG.AD0054,AD0054,54,Duplicate USUBJIDs: Only one record permitted per USUBJID,,ADaMIG,"1.3, 1.2, 1.1, 1.0","{""Data_Structures"":{""Include"":[""SUBJECT LEVEL ANALYSIS DATASET""]}}",Fully Executable,Draft,['ADaMIG'],['54'],['54']
CDISC.ADaMIG.AD055,AD0055,55,SUBJID is not present in ADSL,,ADaMIG,"1.0, 1.1, 1.2, 1.3","{""Data_Structures"":{""Include"":[""SUBJECT LEVEL ANALYSIS DATASET""]}}",Fully Executable,Draft,['ADaMIG'],['55'],['55']
CDISC.ADaMIG.AD0060,AD0060,60,Variable with a suffix of DTM  must be numeric,'A variable with a suffix of DTM must be numeric',ADaMIG,"1.3, 1.2, 1.1, 1.0","{""Subclasses"":{""Include"":[""ALL""]},""Data_Structures"":{""Include"":[""ALL""]}}",Fully Executable,Draft,['ADaMIG'],['60'],['60']
CDISC.ADaMIG.AD064,AD0064,64,TRTxxAN is present and TRTxxA is not present in ADSL,,ADaMIG,"1.0, 1.1, 1.2, 1.3","{""Data_Structures"":{""Include"":[""SUBJECT LEVEL ANALYSIS DATASET""]}}",Fully Executable,Draft,['ADaMIG'],['64'],['64']
CDSIC.ADaMIG.AD0070,AD0070,70,"A variable with a prefix of TR, containing AG with a suffix of N is present and a variable with the same root without a suffix of N is not present","'A variable with a prefix of TR, containing AG with a suffix of N is present and a variable with the same root without a suffix of N is not present'",ADaMIG,"1.3, 1.2, 1.1, 1.0","{""Data_Structures"":{""Include"":[""SUBJECT LEVEL ANALYSIS DATASET""]}}",Fully Executable,Draft,['ADaMIG'],['70'],['70']
CDISC.ADaMIG.AD071,AD0071,71,ARM is not present in ADSL,,ADaMIG,"1.0, 1.1, 1.2, 1.3","{""Datasets"":{""Include"":[""ALL""]},""Data_Structures"":{""Include"":[""SUBJECT LEVEL ANALYSIS DATASET""]}}",Fully Executable,Draft,['ADaMIG'],['71'],['71']
CDISC.ADaMIG.AD072,AD0072,72,TRT01P is not present in ADSL,,ADaMIG,"1.0, 1.1, 1.2, 1.3","{""Data_Structures"":{""Include"":[""SUBJECT LEVEL ANALYSIS DATASET""]}}",Fully Executable,Draft,['ADaMIG'],['72'],['72']
CDISC.ADaMIG.AD080,AD0080,80,TRTxxA is present and TRTxxP is not present in ADSL,,ADaMIG,"1.0, 1.1, 1.2, 1.3","{""Data_Structures"":{""Include"":[""SUBJECT LEVEL ANALYSIS DATASET""]}}",Fully Executable,Draft,['ADaMIG'],['80'],['80']
CDISC.ADAMIG.AD0088,AD0088,88,STUDYID is not present,Raise an error when STUDYID is not present,ADaMIG,"1.3, 1.2, 1.1, 1.0","{""Data_Structures"":{""Include"":[""ALL""]}}",Fully Executable,Draft,['ADaMIG'],['88'],['88']
CDISC.ADAMIG.AD0089,AD0089,89,USUBJID is not present,Raise an error when USUBJID is not present,ADaMIG,"1.3, 1.2, 1.1, 1.0","{""Data_Structures"":{""Include"":[""ALL""]}}",Fully Executable,Draft,['ADaMIG'],['89'],['89']
CDISC.ADAMIG.111,AD0111,111,"When ARELTM is present, ARELTMU must also be present",,ADaMIG,"1.0, 1.1, 1.2, 1.3","{""Datasets"":{""Include"":[""ALL""]},""Data_Structures"":{""Include"":[""BASIC DATA STRUCTURE"",""MEDICAL DEVICE BASIC DATA STRUCTURE""]}}",Fully Executable,Draft,['ADaMIG'],['111'],['111']
CDSIC.ADaMIG.AD0112,AD0112,112,ARELTM is populated and ARELTMU is not populated,'ARELTM is populated and ARELTMU is not populated',"ADaMIG, ADaMIG-MD","1.0, 1.2, 1.1","{""Classes"":{""Include"":[""ALL""]},""Data_Structures"":{""Include"":[""BASIC DATA STRUCTURE"",""MEDICAL DEVICE BASIC DATA STRUCTURE""]}}",Fully Executable,Draft,"['ADaMIG', 'ADaMIG-MD']",['112'],['112']
CDSIC.ADaMIG.AD0113,AD0113,113,ARELTMU is present and ARELTM is not present,'ARELTMU is present and ARELTM is not present',"ADaMIG, ADaMIG-MD","1.0, 1.2, 1.1","{""Classes"":{""Include"":[""ALL""]},""Data_Structures"":{""Include"":[""BASIC DATA STRUCTURE"",""MEDICAL DEVICE BASIC DATA STRUCTURE""]}}",Fully Executable,Draft,"['ADaMIG', 'ADaMIG-MD']",['113'],['113']
CDISC.ADaMIG.AD0143,AD0143,143,Variable name has more than 8 characters,,"ADaMIG-MD, ADaMIG","1.0, 1.3, 1.2, 1.1","{""Datasets"":{""Include"":[""ALL""]},""Subclasses"":{""Include"":[""ALL""]},""Data_Structures"":{""Include"":[""BASIC DATA STRUCTURE"",""MEDICAL DEVICE OCCURRENCE DATA STRUCTURE""]}}",Fully Executable,Draft,"['ADaMIG-MD', 'ADaMIG']",['143'],['143']
CDISC.ADaMIG.AD0144,AD0144,144,PARAMCD starts with a character other than a letter,,"ADaMIG-MD, ADaMIG","1.3, 1.2, 1.1, 1.0","{""Datasets"":{""Include"":[""ALL""]},""Domains"":{""Include"":[""ALL""],""include_split_datasets"":true},""Subclasses"":{""Include"":[""ALL""]},""Data_Structures"":{""Include"":[""ALL""]}}",Fully Executable,Draft,"['ADaMIG-MD', 'ADaMIG']",['144'],['144']
CDISC.ADaMIG.AD0145,AD0145,145,"PARAMCD has characters that are not letters, digits, and underscores",,"ADaMIG-MD, ADaMIG","1.0, 1.3, 1.2, 1.1","{""Datasets"":{""Include"":[""ALL""]},""Subclasses"":{""Include"":[""ALL""]},""Data_Structures"":{""Include"":[""BASIC DATA STRUCTURE"",""MEDICAL DEVICE OCCURRENCE DATA STRUCTURE""]}}",Fully Executable,Draft,"['ADaMIG-MD', 'ADaMIG']",['145'],['145']
CDISC.ADaMIG.AD0159,AD0159,159,AWTARGET must be populated when AWTDIFF is populated,,"ADaMIG, ADaMIG-MD","1.0, 1.1, 1.2, 1.3","{""Data_Structures"":{""Include"":[""BASIC DATA STRUCTURE"",""MEDICAL DEVICE BASIC DATA STRUCTURE""]}}",Fully Executable,Draft,"['ADaMIG', 'ADaMIG-MD']",['159'],['159']
CDISC.ADaMIG.AD0160,AD0160,160,AWU is present but AWLO and AWHI are not present,,ADaMIG,"1.0, 1.1","{""Data_Structures"":{""Include"":[""BASIC DATA STRUCTURE""]}}",Fully Executable,Draft,['ADaMIG'],['160'],['160']
CDISC.ADaMIG.AD0163,AD0163,163,BTOXGR is present but ATOXGR is not present,,"ADaMIG, ADaMIG-MD","1.0, 1.1, 1.2, 1.3","{""Data_Structures"":{""Include"":[""BASIC DATA STRUCTURE"",""MEDICAL DEVICE OCCURRENCE DATA STRUCTURE""]}}",Fully Executable,Draft,"['ADaMIG', 'ADaMIG-MD']",['163'],['163']
CDISC.ADaMIG.AD0164,AD0164,164,BTOXGR is present but ABLFL is not present,,"ADaMIG-MD, ADaMIG","1.0, 1.1, 1.2, 1.3","{""Data_Structures"":{""Include"":[""BASIC DATA STRUCTURE""]}}",Fully Executable,Draft,"['ADaMIG-MD', 'ADaMIG']",['164'],['164']
CDISC.ADaMIG.AD0166,AD0166,166,BNRIND is present but ANRIND is not present,,"ADaMIG-MD, ADaMIG","1.0, 1.1, 1.2, 1.3","{""Data_Structures"":{""Include"":[""BASIC DATA STRUCTURE""]}}",Fully Executable,Draft,"['ADaMIG-MD', 'ADaMIG']",['166'],['166']
CDISC.ADaMIG.AD0167,AD0167,167,BNRIND is present but ABLFL is not present,,"ADaMIG-MD, ADaMIG","1.0, 1.1, 1.2, 1.3","{""Data_Structures"":{""Include"":[""BASIC DATA STRUCTURE""]}}",Fully Executable,Draft,"['ADaMIG-MD', 'ADaMIG']",['167'],['167']
CDISC.ADaMIG.AD0169,AD0169,169,CNSR value is not an integer >= 0,,"ADaMIG-MD, ADaMIG","1.0, 1.1, 1.2, 1.3","{""Data_Structures"":{""Include"":[""BASIC DATA STRUCTURE""]}}",Fully Executable,Draft,"['ADaMIG-MD', 'ADaMIG']",['169'],['169']
CDISC.ADaMIG.AD0176,AD0176,176,ABLFL is not equal to Y or missing,,ADaMIG,"1.0, 1.1","{""Data_Structures"":{""Include"":[""BASIC DATA STRUCTURE""]}}",Fully Executable,Draft,['ADaMIG'],['176'],['176']
CDISC.ADaMIG.AD0178,AD0178,178,ANLzzFL is not equal to Y or missing,,ADaMIG,"1.0, 1.1","{""Data_Structures"":{""Include"":[""BASIC DATA STRUCTURE""]}}",Fully Executable,Draft,['ADaMIG'],['178'],['178']
CDISC.ADaMIG.AD0194,AD0194,194,PARAM is not present in dataset,,"ADaMIG-MD, ADaMIG","1.0, 1.1, 1.2, 1.3","{""Subclasses"":{""Include"":[""NON-COMPARTMENTAL ANALYSIS"",""TIME-TO-EVENT""]},""Data_Structures"":{""Include"":[""BASIC DATA STRUCTURE""]}}",Fully Executable,Draft,"['ADaMIG-MD', 'ADaMIG']",['194'],['194']
CDISC.ADaMIG.AD0195,AD0195,195,PARAMCD is not present in dataset,,"ADaMIG-MD, ADaMIG","1.0, 1.1, 1.2, 1.3","{""Subclasses"":{""Include"":[""NON-COMPARTMENTAL ANALYSIS"",""TIME-TO-EVENT""]},""Data_Structures"":{""Include"":[""BASIC DATA STRUCTURE""]}}",Fully Executable,Draft,"['ADaMIG-MD', 'ADaMIG']",['195'],['195']
CDISC.ADaMIG.AD0196,AD0196,196,PARAM must be populated for all records in dataset,,"ADaMIG-MD, ADaMIG","1.0, 1.1, 1.2, 1.3","{""Subclasses"":{""Include"":[""NON-COMPARTMENTAL ANALYSIS"",""TIME-TO-EVENT""]},""Data_Structures"":{""Include"":[""BASIC DATA STRUCTURE""]}}",Fully Executable,Draft,"['ADaMIG-MD', 'ADaMIG']",['196'],['196']
CDISC.ADaMIG.AD0197,AD0197,197,PARAMCD must be populted for ecery record in the dataset,,"ADaMIG-MD, ADaMIG","1.0, 1.1, 1.2, 1.3","{""Subclasses"":{""Include"":[""NON-COMPARTMENTAL ANALYSIS"",""TIME-TO-EVENT""]},""Data_Structures"":{""Include"":[""BASIC DATA STRUCTURE""]}}",Fully Executable,Draft,"['ADaMIG-MD', 'ADaMIG']",['197'],['197']
CDISC.ADaMIG.AD0198,AD0198,198,AVAL or AVALC must be present in dataset,,"ADaMIG-MD, ADaMIG","1.0, 1.1, 1.2, 1.3","{""Subclasses"":{""Include"":[""NON-COMPARTMENTAL ANALYSIS"",""TIME-TO-EVENT""]},""Data_Structures"":{""Include"":[""BASIC DATA STRUCTURE""]}}",Fully Executable,Draft,"['ADaMIG-MD', 'ADaMIG']",['198'],['198']
CDISC.ADaMIG.AD0204,AD0204,204,ADSL age not equal to DM Age,,ADaMIG,"1.0, 1.1, 1.2, 1.3","{""Data_Structures"":{""Include"":[""SUBJECT LEVEL ANALYSIS DATASET""]}}",Fully Executable,Draft,['ADaMIG'],['204'],['204']
CDISC.ADaMIG.AD0211,AD0211,211,Value of ABLFN must be 1 or null,Raise an error when ABLFN is not equal to 1 or null,ADaMIG,"1.3, 1.2, 1.1, 1.0","{""Data_Structures"":{""Include"":[""BASIC DATA STRUCTURE""]},""Subclasses"":{""Include"":[""ALL""]}}",Fully Executable,Draft,['ADaMIG'],['211'],['211']
CDISC.ADAMIG.252,AD0252,252,,,ADaMIG,1.3,"{""Classes"":{""Include"":[""ALL""]},""Domains"":{""Include"":[""ALL""]}}",Fully Executable,Draft,['ADaMIG'],['252'],['252']
CDISC.ADaMIG.AD0252b,AD0252,252,AVAL or AVALC must not be present in dataset,,"ADaMIG-MD, OCCDS","1.3, 1.2, 1.1, 1.0","{""Subclasses"":{""Include"":[""ALL""]},""Data_Structures"":{""Include"":[""OCCURRENCE DATA STRUCTURE""]}}",Fully Executable,Draft,"['ADaMIG-MD', 'OCCDS']",['252'],['252']
CDISC.ADaMIG.AD0254,AD0254,254,PARAM must not be present in Occurence dataset,,"ADaMIG-MD, OCCDS","1.3, 1.2, 1.1, 1.0","{""Subclasses"":{""Include"":[""ALL""]},""Data_Structures"":{""Include"":[""OCCURRENCE DATA STRUCTURE""]}}",Fully Executable,Draft,"['ADaMIG-MD', 'OCCDS']",['254'],['254']
CDISC.ADaMIG.AD0254b,AD0254,254,AVAL or AVALC must not be present in dataset,,"ADaMIG-MD, OCCDS","1.3, 1.2, 1.1, 1.0","{""Subclasses"":{""Include"":[""ALL""]},""Data_Structures"":{""Include"":[""OCCURRENCE DATA STRUCTURE""]}}",Fully Executable,Draft,"['ADaMIG-MD', 'OCCDS']",['254'],['254']
CDISC.ADAMIG.AD0261,AD0261,261,Variable AEDECOD is not present in ADVERSE EVENT dataset,Variable AEDECOD should be present in analysis dataset for Adverse Event analysis,ADaMIG,"1.3, 1.2, 1.1, 1.0","{""Subclasses"":{""Include"":[""ADVERSE EVENT""]},""Data_Structures"":{""Include"":[""OCCURRENCE DATA STRUCTURE""]}}",Fully Executable,Draft,['ADaMIG'],['261'],['261']
CDISC.ADAMIG.AD0262,AD0262,262,Variable AEBODSYS is not present in dataset ADAE,Variable AEBODSYS should be present in analysis dataset for Adverse Event analysis,ADaMIG,"1.3, 1.2, 1.1, 1.0","{""Data_Structures"":{""Include"":[""OCCURRENCE DATA STRUCTURE""]},""Subclasses"":{""Include"":[""ADVERSE EVENT""]}}",Fully Executable,Draft,['ADaMIG'],['262'],['262']
CDISC.ADaMIG.AD0268,AD0268,268,ADURN must be populated when ADURN is not missing,,"ADaMIG-MD, OCCDS","1.3, 1.2, 1.1, 1.0","{""Subclasses"":{""Include"":[""ALL""]},""Data_Structures"":{""Include"":[""OCCURRENCE DATA STRUCTURE"",""MEDICAL DEVICE OCCURRENCE DATA STRUCTURE""]}}",Fully Executable,Draft,"['ADaMIG-MD', 'OCCDS']",['268'],['268']
CDISC.ADaMIG.AD0269,AD0269,269,TRTEMFL is not equal to Y or null,,"ADaMIG-MD, OCCDS","1.3, 1.2, 1.1, 1.0","{""Subclasses"":{""Include"":[""ALL""]},""Data_Structures"":{""Include"":[""OCCURRENCE DATA STRUCTURE"",""MEDICAL DEVICE OCCURRENCE DATA STRUCTURE""]}}",Fully Executable,Draft,"['ADaMIG-MD', 'OCCDS']",['269'],['269']
CDISC.ADaMIG.AD0270,AD0270,270,PREFL is not equal to Y or null,,"ADaMIG-MD, OCCDS","1.3, 1.2, 1.1, 1.0","{""Subclasses"":{""Include"":[""ALL""]},""Data_Structures"":{""Include"":[""OCCURRENCE DATA STRUCTURE"",""MEDICAL DEVICE OCCURRENCE DATA STRUCTURE""]}}",Fully Executable,Draft,"['ADaMIG-MD', 'OCCDS']",['270'],['270']
CDISC.ADaMIG.AD0271,AD0271,271,FUPFL not equal to Y or null,,"ADaMIG-MD, OCCDS","1.3, 1.2, 1.1, 1.0","{""Subclasses"":{""Include"":[""ALL""]},""Data_Structures"":{""Include"":[""OCCURRENCE DATA STRUCTURE"",""MEDICAL DEVICE OCCURRENCE DATA STRUCTURE""]}}",Fully Executable,Draft,"['ADaMIG-MD', 'OCCDS']",['271'],['271']
CDISC.ADAMIG.AD0278,AD0278,278,Variable AESER is not present in dataset ADAE,Variable AESER should be present in analysis dataset for Adverse Event analysis,ADaMIG,"1.3, 1.2, 1.1, 1.0","{""Data_Structures"":{""Include"":[""OCCURRENCE DATA STRUCTURE""]},""Subclasses"":{""Include"":[""ADVERSE EVENT""]}}",Fully Executable,Draft,['ADaMIG'],['278'],['278']
CDISC.ADaMIG.AD0279,AD0279,279,AESEVN not equal to Y or null,,"ADaMIG, ADaMIG-MD, OCCDS","1.3, 1.2, 1.1, 1.0","{""Subclasses"":{""Include"":[""ALL""]},""Data_Structures"":{""Include"":[""OCCURRENCE DATA STRUCTURE"",""MEDICAL DEVICE OCCURRENCE DATA STRUCTURE""]}}",Fully Executable,Draft,"['ADaMIG', 'ADaMIG-MD', 'OCCDS']",['279'],['279']
CDISC.ADaMIG.AD0363,AD0363,363,ONTRTFL is not equal to Y or missing,,ADaMIG,"1.0, 1.1","{""Data_Structures"":{""Include"":[""BASIC DATA STRUCTURE""]}}",Fully Executable,Draft,['ADaMIG'],['363'],['363']
CDISC.ADaMIG.AD0364,AD0364,364,DOSEU is not present but DOSEON or DOSCUMA are present,,"ADaMIG-MD, OCCDS","1.3, 1.2, 1.1","{""Subclasses"":{""Include"":[""ALL""]},""Data_Structures"":{""Include"":[""OCCURRENCE DATA STRUCTURE"",""MEDICAL DEVICE OCCURRENCE DATA STRUCTURE""]}}",Fully Executable,Draft,"['ADaMIG-MD', 'OCCDS']",['364'],['364']
CDISC.ADaMIG.AD0364,AD0364,364,AESEVN not equal to Y or null,,"ADaMIG-MD, OCCDS","1.3, 1.2, 1.1","{""Subclasses"":{""Include"":[""ALL""]},""Data_Structures"":{""Include"":[""OCCURRENCE DATA STRUCTURE"",""MEDICAL DEVICE OCCURRENCE DATA STRUCTURE""]}}",Fully Executable,Draft,"['ADaMIG-MD', 'OCCDS']",['364'],['364']
CDISC.ADaMIG.AD0364,AD0364,364,AESEVN not equal to Y or null,,"ADaMIG-MD, OCCDS","1.3, 1.2, 1.1","{""Subclasses"":{""Include"":[""ALL""]},""Data_Structures"":{""Include"":[""OCCURRENCE DATA STRUCTURE"",""MEDICAL DEVICE OCCURRENCE DATA STRUCTURE""]}}",Fully Executable,Draft,"['ADaMIG-MD', 'OCCDS']",['364'],['364']
CDISC.ADaMIG.AD0364,AD0364,364,AESEVN not equal to Y or null,,"ADaMIG-MD, OCCDS","1.3, 1.2, 1.1","{""Subclasses"":{""Include"":[""ALL""]},""Data_Structures"":{""Include"":[""OCCURRENCE DATA STRUCTURE"",""MEDICAL DEVICE OCCURRENCE DATA STRUCTURE""]}}",Fully Executable,Draft,"['ADaMIG-MD', 'OCCDS']",['364'],['364']
CDISC.ADaMIG.AD0364,AD0364,364,AESEVN not equal to Y or null,,"ADaMIG-MD, OCCDS","1.3, 1.2, 1.1","{""Subclasses"":{""Include"":[""ALL""]},""Data_Structures"":{""Include"":[""OCCURRENCE DATA STRUCTURE"",""MEDICAL DEVICE OCCURRENCE DATA STRUCTURE""]}}",Fully Executable,Draft,"['ADaMIG-MD', 'OCCDS']",['364'],['364']
CDISC.ADaMIG.AD0364,AD0364,364,AESEVN not equal to Y or null,,"ADaMIG-MD, OCCDS","1.3, 1.2, 1.1","{""Subclasses"":{""Include"":[""ALL""]},""Data_Structures"":{""Include"":[""OCCURRENCE DATA STRUCTURE"",""MEDICAL DEVICE OCCURRENCE DATA STRUCTURE""]}}",Fully Executable,Draft,"['ADaMIG-MD', 'OCCDS']",['364'],['364']
CDISC.ADaMIG.AD0373,AD0373,373,CNSR is required for TTE analysis,,ADTTE,"1.0, 1.1, 1.2, 1.3","{""Subclasses"":{""Include"":[""TIME-TO-EVENT"",""MEDICAL DEVICE TIME-TO-EVENT""]},""Data_Structures"":{""Include"":[""BASIC DATA STRUCTURE"",""MEDICAL DEVICE BASIC DATA STRUCTURE""]}}",Fully Executable,Draft,['ADTTE'],['373'],['373']
CDISC.ADaMIG.AD0522b,AD0522,522,BTOXGRN present but BTOXGR is not present in dataset,,"ADaMIG-MD, ADaMIG","1.3, 1.2, 1.1","{""Subclasses"":{""Include"":[""ALL""]},""Data_Structures"":{""Include"":[""BASIC DATA STRUCTURE"",""MEDICAL DEVICE BASIC DATA STRUCTURE""]}}",Fully Executable,Draft,"['ADaMIG-MD', 'ADaMIG']",['522'],['522']
CDISC.ADaMIG.AD0523b,AD0523,523,ATOXGRLN present but ATOXGRL not be present in dataset,,"ADaMIG-MD, ADaMIG","1.3, 1.2, 1.1","{""Subclasses"":{""Include"":[""ALL""]},""Data_Structures"":{""Include"":[""BASIC DATA STRUCTURE"",""MEDICAL DEVICE BASIC DATA STRUCTURE""]}}",Fully Executable,Draft,"['ADaMIG-MD', 'ADaMIG']",['523'],['523']
CDISC.ADaMIG.AD0524,AD0524,524,ATOXGRHN present but ATOXGRH not be present in dataset,,"ADaMIG-MD, ADaMIG","1.3, 1.2, 1.1","{""Subclasses"":{""Include"":[""ALL""]},""Data_Structures"":{""Include"":[""BASIC DATA STRUCTURE"",""MEDICAL DEVICE BASIC DATA STRUCTURE""]}}",Fully Executable,Draft,"['ADaMIG-MD', 'ADaMIG']",['524'],['524']
CDISC.ADaMIG.AD0525,AD0525,525,ABLFN present but ABLFL not be present in dataset,,"ADaMIG-MD, ADaMIG","1.3, 1.2, 1.1","{""Subclasses"":{""Include"":[""ALL""]},""Data_Structures"":{""Include"":[""BASIC DATA STRUCTURE"",""MEDICAL DEVICE BASIC DATA STRUCTURE""]}}",Fully Executable,Draft,"['ADaMIG-MD', 'ADaMIG']",['525'],['525']
CDISC.ADaMIG.AD0529,AD0529,529,AESEVN present but AESEV not be present in dataset,,"ADaMIG-MD, ADaMIG","1.3, 1.2, 1.1","{""Subclasses"":{""Include"":[""ALL""]},""Data_Structures"":{""Include"":[""BASIC DATA STRUCTURE"",""MEDICAL DEVICE BASIC DATA STRUCTURE""]}}",Fully Executable,Draft,"['ADaMIG-MD', 'ADaMIG']",['529'],['529']
CDISC.ADaMIG.AD0530,AD0530,530,ASEVN present but ASEV not be present in dataset,,"ADaMIG-MD, ADaMIG","1.3, 1.2, 1.1","{""Subclasses"":{""Include"":[""ALL""]},""Data_Structures"":{""Include"":[""BASIC DATA STRUCTURE"",""MEDICAL DEVICE BASIC DATA STRUCTURE""]}}",Fully Executable,Draft,"['ADaMIG-MD', 'ADaMIG']",['530'],['530']
CDISC.ADaMIG.AD0619,AD0619,619,LVOTFL is not equal to Y or missing,,ADaMIG,"1.0, 1.1","{""Data_Structures"":{""Include"":[""BASIC DATA STRUCTURE""]}}",Fully Executable,Draft,['ADaMIG'],['619'],['619']
CDISC.ADAMIG.AD0620,AD0620,620,Variable AETERM is not present in dataset ADAE,Variable AETERM should be present in analysis dataset for Adverse Event analysis,ADaMIG,"1.3, 1.2, 1.1, 1.0","{""Domains"":{""Include"":[""ADAE""]},""Subclasses"":{""Include"":[""ADVERSE EVENT""]},""Data_Structures"":{""Include"":[""OCCURRENCE DATA STRUCTURE""]}}",Fully Executable,Draft,['ADaMIG'],['620'],['620']
CDISC.ADAMIG.AD0621,AD0621,621,Variable TRTEMFL is not present in dataset ADAE,Variable TRTEMFL should be present in analysis dataset for Adverse Event analysis,ADaMIG,"1.3, 1.2, 1.1, 1.0","{""Data_Structures"":{""Include"":[""OCCURRENCE DATA STRUCTURE""]},""Subclasses"":{""Include"":[""ADVERSE EVENT""]}}",Fully Executable,Draft,['ADaMIG'],['621'],['621']
CDISC.ADAMIG.AD0623,AD0623,623,Variable AESEQ is not present in dataset ADAE,Variable AESEQ should be present in analysis dataset for Adverse Event analysis,ADaMIG,"1.3, 1.2, 1.1, 1.0","{""Data_Structures"":{""Include"":[""OCCURRENCE DATA STRUCTURE""]},""Subclasses"":{""Include"":[""ADVERSE EVENT""]}}",Fully Executable,Draft,['ADaMIG'],['623'],['623']
CDISC.ADAMIG.AD0624,AD0624,624,Variable AELLT is not present in dataset ADAE,Variable AELLT should be present in analysis dataset for Adverse Event analysis,ADaMIG,"1.3, 1.2, 1.1, 1.0","{""Data_Structures"":{""Include"":[""OCCURRENCE DATA STRUCTURE""]},""Subclasses"":{""Include"":[""ADVERSE EVENT""]}}",Fully Executable,Draft,['ADaMIG'],['624'],['624']
CDISC.ADAMIG.AD0625,AD0625,625,Variable AEBDSYCD is not present in dataset ADAE,Variable AEBDSYCD should be present in analysis dataset for Adverse Event analysis,ADaMIG,"1.3, 1.2, 1.1, 1.0","{""Data_Structures"":{""Include"":[""OCCURRENCE DATA STRUCTURE""]},""Subclasses"":{""Include"":[""ADVERSE EVENT""]}}",Fully Executable,Draft,['ADaMIG'],['625'],['625']
CDISC.ADAMIG.AD0626,AD0626,626,Variable AELLTCD is not present in dataset ADAE,Variable AELLTCD should be present in analysis dataset for Adverse Event analysis,ADaMIG,"1.3, 1.2, 1.1, 1.0","{""Data_Structures"":{""Include"":[""OCCURRENCE DATA STRUCTURE""]},""Subclasses"":{""Include"":[""ADVERSE EVENT""]}}",Fully Executable,Draft,['ADaMIG'],['626'],['626']
CDISC.ADAMIG.AD0627,AD0627,627,Variable AEHLT is not present in dataset ADAE,Variable AEHLT should be present in analysis dataset for Adverse Event analysis,ADaMIG,"1.3, 1.2, 1.1, 1.0","{""Data_Structures"":{""Include"":[""OCCURRENCE DATA STRUCTURE""]},""Subclasses"":{""Include"":[""ADVERSE EVENT""]}}",Fully Executable,Draft,['ADaMIG'],['627'],['627']
CDISC.ADAMIG.AD0628,AD0628,628,Variable AEHLTCD is not present in dataset ADAE,Variable AEHLTCD should be present in analysis dataset for Adverse Event analysis,ADaMIG,"1.3, 1.2, 1.1, 1.0","{""Data_Structures"":{""Include"":[""OCCURRENCE DATA STRUCTURE""]},""Subclasses"":{""Include"":[""ADVERSE EVENT""]}}",Fully Executable,Draft,['ADaMIG'],['628'],['628']
CDISC.ADAMIG.AD0629,AD0629,629,Variable AEHLGT is not present in dataset ADAE,Variable AEHLGT should be present in analysis dataset for Adverse Event analysis,ADaMIG,"1.3, 1.2, 1.1, 1.0","{""Data_Structures"":{""Include"":[""OCCURRENCE DATA STRUCTURE""]},""Subclasses"":{""Include"":[""ADVERSE EVENT""]}}",Fully Executable,Draft,['ADaMIG'],['629'],['629']
CDISC.ADAMIG.AD0630,AD0630,630,Variable AEHLGTCD is not present in dataset ADAE,Variable AEHLGTCD should be present in analysis dataset for Adverse Event analysis,ADaMIG,"1.3, 1.2, 1.1, 1.0","{""Subclasses"":{""Include"":[""ADVERSE EVENT""]},""Data_Structures"":{""Include"":[""OCCURRENCE DATA STRUCTURE""]}}",Fully Executable,Draft,['ADaMIG'],['630'],['630']
CDISC.ADAMIG.AD0631,AD0631,631,Variable AEPTCD is not present in dataset ADAE,Variable AEPTCD should be present in analysis dataset for Adverse Event analysis,ADaMIG,"1.3, 1.2, 1.1, 1.0","{""Data_Structures"":{""Include"":[""OCCURRENCE DATA STRUCTURE""]},""Subclasses"":{""Include"":[""ADVERSE EVENT""]}}",Fully Executable,Draft,['ADaMIG'],['631'],['631']
CDISC.ADAMIG.AD0632,AD0632,632,Variable AESOC is not present in dataset ADAE,Variable AESOC should be present in analysis dataset for Adverse Event analysis,ADaMIG,"1.3, 1.2, 1.1, 1.0","{""Data_Structures"":{""Include"":[""OCCURRENCE DATA STRUCTURE""]},""Subclasses"":{""Include"":[""ADVERSE EVENT""]}}",Fully Executable,Draft,['ADaMIG'],['632'],['632']
CDISC.ADAMIG.AD0633,AD0633,633,Variable AESOCCD is not present in dataset ADAE,Variable AESOCCD should be present in analysis dataset for Adverse Event analysis,ADaMIG,"1.3, 1.2, 1.1, 1.0","{""Data_Structures"":{""Include"":[""OCCURRENCE DATA STRUCTURE""]},""Subclasses"":{""Include"":[""ADVERSE EVENT""]}}",Fully Executable,Draft,['ADaMIG'],['633'],['633']
CDISC.ADaMIG.AD0800,AD0800,800,"STUDYID is populated, but STUDYIDN is not populated",,ADaMIG,1.3,"{""Subclasses"":{""Include"":[""ALL""]},""Data_Structures"":{""Include"":[""BASIC DATA STRUCTURE""]}}",Fully Executable,Draft,['ADaMIG'],['800'],['800']
CDISC.ADaMIG.AD0802,AD0802,802,STUDYIDN is not unique for a given value of STUDYID,,ADaMIG,1.3,"{""Subclasses"":{""Include"":[""POPULATION PHARMACOKINETIC ANALYSIS""]},""Data_Structures"":{""Include"":[""BASIC DATA STRUCTURE""]}}",Fully Executable,Draft,['ADaMIG'],['802'],['802']
CDISC.ADaMIG.AD0804,AD0804,804,"STUDYIDN is present, but STUDYID is not present",,ADaMIG,1.3,"{""Subclasses"":{""Include"":[""ALL""]},""Data_Structures"":{""Include"":[""BASIC DATA STRUCTURE""]}}",Fully Executable,Draft,['ADaMIG'],['804'],['804']
CDISC.ADaMIG.AD0805,AD0805,805,"SUBJTYP is populated, but SUBJTYPC is not populated",,ADaMIG,1.3,"{""Subclasses"":{""Include"":[""ALL""]},""Data_Structures"":{""Include"":[""BASIC DATA STRUCTURE""]}}",Fully Executable,Draft,['ADaMIG'],['805'],['805']
CDISC.ADaMIG.AD0806,AD0806,806,"SUBJTYP is populated, but SUBJTYPC is not populated",,ADaMIG,1.3,"{""Subclasses"":{""Include"":[""ALL""]},""Data_Structures"":{""Include"":[""BASIC DATA STRUCTURE""]}}",Fully Executable,Draft,['ADaMIG'],['806'],['806']
CDISC.ADaMIG.AD0807,AD0807,807,SUBJTYPC is not unique for a given value of SUBJTYP,,ADaMIG,1.3,"{""Subclasses"":{""Include"":[""ALL""]},""Data_Structures"":{""Include"":[""BASIC DATA STRUCTURE""]}}",Fully Executable,Draft,['ADaMIG'],['807'],['807']
CDISC.ADaMIG.AD0809,AD0809,809,"SUBJTYPC is present, but SUBJTYP is not present",,ADaMIG,1.3,"{""Subclasses"":{""Include"":[""ALL""]},""Data_Structures"":{""Include"":[""BASIC DATA STRUCTURE""]}}",Fully Executable,Draft,['ADaMIG'],['809'],['809']
CDISC.ADaMIG.AD0811,AD0811,811,USUBJIDN is populated but USUBJID is missing,,ADaMIG,1.3,"{""Subclasses"":{""Include"":[""ALL""]},""Data_Structures"":{""Include"":[""BASIC DATA STRUCTURE""]}}",Fully Executable,Draft,['ADaMIG'],['811'],['811']
CDISC.ADaMIG.AD0812,AD0812,812,USUBJIDN is not unique for a given value of USUBJID,,ADaMIG,1.3,"{""Subclasses"":{""Include"":[""ALL""]},""Data_Structures"":{""Include"":[""BASIC DATA STRUCTURE""]}}",Fully Executable,Draft,['ADaMIG'],['812'],['812']
CDISC.ADaMIG.AD0813,AD0813,813,USUBJID is not unique for a given value of USUBJIDN,,ADaMIG,1.3,"{""Subclasses"":{""Include"":[""POPULATION PHARMACOKINETIC ANALYSIS""]},""Data_Structures"":{""Include"":[""BASIC DATA STRUCTURE""]}}",Fully Executable,Draft,['ADaMIG'],['813'],['813']
CDISC.ADaMIG.AD0814,AD0814,814,"USUBJIDN is present, but USUBJID is not present",,ADaMIG,1.3,"{""Subclasses"":{""Include"":[""POPULATION PHARMACOKINETIC ANALYSIS""]},""Data_Structures"":{""Include"":[""BASIC DATA STRUCTURE""]}}",Fully Executable,Draft,['ADaMIG'],['814'],['814']
CDISC.ADaMIG.AD0815,AD0815,815,SUBJID is populated but SUBJIDN is missing,,ADaMIG,1.3,"{""Subclasses"":{""Include"":[""POPULATION PHARMACOKINETIC ANALYSIS""]},""Data_Structures"":{""Include"":[""BASIC DATA STRUCTURE""]}}",Fully Executable,Draft,['ADaMIG'],['815'],['815']
CDISC.ADaMIG.AD0816,AD0816,816,SUBJIDN is populated but SUBJID is missing,,ADaMIG,1.3,"{""Subclasses"":{""Include"":[""POPULATION PHARMACOKINETIC ANALYSIS""]},""Data_Structures"":{""Include"":[""BASIC DATA STRUCTURE""]}}",Fully Executable,Draft,['ADaMIG'],['816'],['816']
CDISC.ADaMIG.AD0817,AD0817,817,SUBJIDN is not unique for a given value of SUBJID,,ADaMIG,1.3,"{""Subclasses"":{""Include"":[""POPULATION PHARMACOKINETIC ANALYSIS""]},""Data_Structures"":{""Include"":[""BASIC DATA STRUCTURE""]}}",Fully Executable,Draft,['ADaMIG'],['817'],['817']
CDISC.ADaMIG.AD0818,AD0818,818,SUBJID is not unique for a given value of SUBJIDN,,ADaMIG,1.3,"{""Subclasses"":{""Include"":[""POPULATION PHARMACOKINETIC ANALYSIS""]},""Data_Structures"":{""Include"":[""BASIC DATA STRUCTURE""]}}",Fully Executable,Draft,['ADaMIG'],['818'],['818']
CDISC.ADaMIG.AD0819,AD0819,819,"SUBJIDN is present, but SUBJID is not present",,ADaMIG,1.3,"{""Subclasses"":{""Include"":[""POPULATION PHARMACOKINETIC ANALYSIS""]},""Data_Structures"":{""Include"":[""BASIC DATA STRUCTURE""]}}",Fully Executable,Draft,['ADaMIG'],['819'],['819']
CDISC.ADaMIG.AD0820,AD0820,820,SITEID is populated but SITEIDN is not populated,,ADaMIG,1.3,"{""Subclasses"":{""Include"":[""POPULATION PHARMACOKINETIC ANALYSIS""]},""Data_Structures"":{""Include"":[""BASIC DATA STRUCTURE""]}}",Fully Executable,Draft,['ADaMIG'],['820'],['820']
CDISC.ADaMIG.AD0821,AD0821,821,SITEIDN is populated but SITEID is not populated,,ADaMIG,1.3,"{""Subclasses"":{""Include"":[""POPULATION PHARMACOKINETIC ANALYSIS""]},""Data_Structures"":{""Include"":[""BASIC DATA STRUCTURE""]}}",Fully Executable,Draft,['ADaMIG'],['821'],['821']
CDISC.ADaMIG.AD0822,AD0822,822,SITEIDN is not unique for a given value of SITEID,,ADaMIG,1.3,"{""Subclasses"":{""Include"":[""POPULATION PHARMACOKINETIC ANALYSIS""]},""Data_Structures"":{""Include"":[""BASIC DATA STRUCTURE""]}}",Fully Executable,Draft,['ADaMIG'],['822'],['822']
CDISC.ADaMIG.AD0823,AD0823,823,SITEIDN is not unique for a given value of SITEID,,ADaMIG,1.3,"{""Subclasses"":{""Include"":[""POPULATION PHARMACOKINETIC ANALYSIS""]},""Data_Structures"":{""Include"":[""BASIC DATA STRUCTURE""]}}",Fully Executable,Draft,['ADaMIG'],['823'],['823']
CDISC.ADaMIG.AD0824,AD0824,824,"SITEIDN is present, but SITEID is not present",,ADaMIG,1.3,"{""Subclasses"":{""Include"":[""POPULATION PHARMACOKINETIC ANALYSIS""]},""Data_Structures"":{""Include"":[""BASIC DATA STRUCTURE""]}}",Fully Executable,Draft,['ADaMIG'],['824'],['824']
CDISC.ADaMIG.AD0825,AD0825,825,"FLGREASC is populated, but FLGREAS is not populated",,ADaMIG,1.3,"{""Subclasses"":{""Include"":[""POPULATION PHARMACOKINETIC ANALYSIS""]},""Data_Structures"":{""Include"":[""BASIC DATA STRUCTURE""]}}",Fully Executable,Draft,['ADaMIG'],['825'],['825']
,AD0895,895,trigger an error when zz in variable label is not equal to zz in ANLzzFL variable name.,"For analysis flag ANLzzFL, the label should contain the number zz.",ADaMIG,"1.3, 1.2, 1.1, 1.0","{""Classes"":{""Exclude"":[""ADSL""]},""Domains"":{""Exclude"":[""ADSL""]}}",Fully Executable,Draft,['ADaMIG'],['895'],['895']
CORE-000929,CG0001,"CG0001, TIG0289, SEND16, TIG0090",DOMAIN Code is not a published DOMAIN Code in CDISC Controlled Terminology.,Raise and error when the DOMAIN Code is not a valid Domain Code published by CDISC.,"SDTMIG, TIG, SENDIG, SENDIG-DART, SENDIG-GENETOX","3.4, 3.2, 3.3, 1.0, 3.0, 3.1, 3.1.1, 1.1, 1.2","{""Classes"":{""Include"":[""ALL""]},""Domains"":{""Include"":[""ALL""]},""Use_Case"":""INDH, PROD, NONCLIN""}",Fully Executable,Published,"['SDTMIG', 'TIG', 'SENDIG', 'SENDIG-DART', 'SENDIG-GENETOX']","['CG0001', 'TIG0289', 'SEND16', 'TIG0090']",['CG0001']
CDISC.SDTMIG.CG0002,CG0002,CG0002,"'--DUR exists in a dataset, confirm collected and not derived.","Raise a message when --DUR exists in a dataset, confirm collected and not derived.",SDTMIG,"3.4, 3.2, 3.3","{""Classes"":{""Include"":[""ALL""]},""Domains"":{""Include"":[""ALL""]}}",Fully Executable,Draft,['SDTMIG'],['CG0002'],['CG0002']
CORE-000529,CG0006,"CG0006, TIG0291, SEND73, TIG0274, SEND74, TIG0275, FB1603","'--DY is not calculated correctly even though the date portion of --DTC is complete, the date portion of DM.RFSTDTC is a complete date, and --DY is not empty.",Raise an error when --DY is not calculated as per the study day algorithm as a non-zero integer value when the date portion of --DTC is complete and the date portion of DM.RFSTDTC is a complete date AND --DY is not empty,"SDTMIG, TIG, SENDIG, SENDIG-DART, SENDIG-GENETOX, SENDIG-AR","3.4, 3.2, 3.3, 1.0, 3.0, 3.1, 3.1.1, 1.1, 1.2","{""Classes"":{""Include"":[""ALL""]},""Domains"":{""Include"":[""ALL""]},""Use_Case"":""NONCLIN, INDH, PROD""}",Fully Executable,Published,"['SDTMIG', 'TIG', 'SENDIG', 'SENDIG-DART', 'SENDIG-GENETOX', 'SENDIG-AR']","['CG0006', 'TIG0291', 'SEND73', 'TIG0274', 'SEND74', 'TIG0275', 'FB1603']","['CG0006', 'FB1603']"
CORE-000354,CG0007,"CG0007, TIG0292","The date portion of --DTC is not complete date or the date portion of DM.RFSTDTC is not complete date, but --DY is not empty","Raise an error when the date portion of --DTC is an incomplete date or the date portion of DM.RFSTDTC is an incomplete date, but --DY is not empty","SDTMIG, TIG","3.4, 3.3, 3.2, 1.0","{""Classes"":{""Include"":[""ALL""]},""Domains"":{""Include"":[""ALL""]},""Use_Case"":""INDH""}",Fully Executable,Published,"['SDTMIG', 'TIG']","['CG0007', 'TIG0292']",['CG0007']
CORE-000028,CG0008,"CG0008, TIG0293",'--TPTREF is empty and --ELTM is not empty,"Raise an error when --TPTREF is empty, but --ELTM is not empty","SDTMIG, TIG","3.4, 3.3, 3.2, 1.0","{""Classes"":{""Include"":[""ALL""]},""Domains"":{""Include"":[""ALL""]},""Use_Case"":""INDH, PROD""}",Fully Executable,Published,"['SDTMIG', 'TIG']","['CG0008', 'TIG0293']",['CG0008']
CORE-000271,CG0009,"CG0009, TIG0294",EPOCH is not in TA.EPOCH,Raise an error when EPOCH is not in TA.EPOCH,"SDTMIG, TIG","3.4, 3.3, 3.2, 1.0","{""Classes"":{""Include"":[""ALL""]},""Domains"":{""Include"":[""ALL""]},""Use_Case"":""INDH""}",Fully Executable,Published,"['SDTMIG', 'TIG']","['CG0009', 'TIG0294']",['CG0009']
CDISC.SDTMIG.CG0010,CG0010,CG0010,"Metadata attribute of variable role does not equal the IG role for domain in IG, or model role (for custom domains)","Trigger warning when metadata attribute of variable role does not equal the IG role for domain in IG, or model role (for custom domains)",SDTMIG,"3.4, 3.2, 3.3","{""Classes"":{""Include"":[""ALL""]},""Domains"":{""Include"":[""ALL""]}}",Partially Executable - Possible Underreporting,Draft,['SDTMIG'],['CG0010'],['CG0010']
CORE-000343,CG0011,CG0011,Variable format does not match SDTM-specified controlled terminology or format guidelines for variables (when provided),Trigger error when variable format does not match SDTM-specified controlled terminology or format guidelines for variables (when provided),SDTMIG,"3.4, 3.2, 3.3","{""Classes"":{""Include"":[""ALL""]},""Domains"":{""Include"":[""ALL""]}}",Not Executable,Draft,['SDTMIG'],['CG0011'],['CG0011']
,CG0011,CG0011C2,"The variable is under controlled terminology, but no codelist has been defined for it in the define.xml",Variables that are under CT must have an associated codelist defined in the define.xml,SDTMIG,"3.2, 3.3, 3.4","{""Classes"":{""Include"":[""ALL""]},""Domains"":{""Include"":[""ALL""]}}",Fully Executable,Draft,['SDTMIG'],['CG0011C2'],['CG0011C2']
,CG0011,CG0011B1,,,SDTMIG,"3.2, 3.3, 3.4","{""Classes"":{""Include"":[""ALL""]},""Domains"":{""Include"":[""ALL""]}}",Fully Executable,Draft,['SDTMIG'],['CG0011B1'],['CG0011B1']
,CG0011,CG0011A1,Variable value for --DUR does not comply with ISO-8601-duration format,,SDTMIG,"3.2, 3.3, 3.4","{""Classes"":{""Include"":[""ALL""]},""Domains"":{""Include"":[""ALL""]}}",Fully Executable,Draft,['SDTMIG'],['CG0011A1'],['CG0011A1']
,CG0011,CG0011A2,,,SDTMIG,"3.2, 3.3, 3.4","{""Classes"":{""Include"":[""ALL""]},""Domains"":{""Include"":[""ALL""]}}",Fully Executable,Draft,['SDTMIG'],['CG0011A2'],['CG0011A2']
,CG0011,CG0011,Test message,,SDTMIG,"3.2, 3.3, 3.4","{""Classes"":{""Include"":[""ALL""]},""Domains"":{""Include"":[""LB""]}}",Fully Executable,Draft,['SDTMIG'],['CG0011'],['CG0011']
CDISC.SDTMIG.CG0012,CG0012,"CG0012, SEND4",Variable type in dataset does not variable datatype in the define.xml,Trigger error when variable type does not match IG Type (for domains in IG) or Model Type (custom domains),"SDTMIG, SENDIG, SENDIG-GENETOX, SENDIG-DART","3.4, 3.2, 3.3, 3.0, 3.1, 3.1.1, 1.0, 1.1, 1.2","{""Classes"":{""Include"":[""ALL""]},""Domains"":{""Include"":[""ALL""]}}",Fully Executable,Draft,"['SDTMIG', 'SENDIG', 'SENDIG-GENETOX', 'SENDIG-DART']","['CG0012', 'SEND4']",['CG0012']
CDISC.SDTMIG.CG0013-1,CG0013,"CG0013, CG0351",Variables not listed in the Model List of Allowed Variables for Observation Class should be in SUPPQUAL.,Trigger error when variable is not an allowed variable for an Observation Class,SDTMIG,3.3,"{""Classes"":{""Include"":[""ALL""]},""Domains"":{""Include"":[""ALL""]},""Use_Case"":""INDH, PROD""}",Partially Executable - Possible Underreporting,Draft,['SDTMIG'],"['CG0013', 'CG0351']","['CG0013', 'CG0351']"
CORE-000550,CG0013,"CG0013, TIG0298, CG0351",Variables not listed in the Model List of Allowed Variables for Observation Class should be in SUPPQUAL.,Trigger error when variable is not an allowed variable for an Observation Class,"SDTMIG, TIG","3.4, 3.2, 1.0","{""Classes"":{""Include"":[""ALL""]},""Domains"":{""Include"":[""ALL""]},""Use_Case"":""INDH, PROD""}",Partially Executable - Possible Underreporting,Published,"['SDTMIG', 'TIG']","['CG0013', 'TIG0298', 'CG0351']","['CG0013', 'CG0351']"
CORE-000355,CG0014,"CG0014, SEND12, TIG0299, TIG0057",At least one required variable is missing from dataset,Part A: Raise an error when a Required variable is not present in the dataset.,"SDTMIG, SENDIG, SENDIG-DART, SENDIG-GENETOX, TIG","3.2, 3.3, 3.4, 3.0, 3.1, 3.1.1, 1.1, 1.2, 1.0","{""Classes"":{""Include"":[""ALL""]},""Domains"":{""Include"":[""ALL""]},""Use_Case"":""INDH, PROD, NONCLIN""}",Fully Executable,Published,"['SDTMIG', 'SENDIG', 'SENDIG-DART', 'SENDIG-GENETOX', 'TIG']","['CG0014', 'SEND12', 'TIG0299', 'TIG0057']",['CG0014']
CORE-000356,CG0014,"CG0014, SEND12, TIG0299, TIG0057",At least one Required variable has a null value,Part B: Raise an error when a Required variable is null.,"SDTMIG, SENDIG, SENDIG-DART, SENDIG-GENETOX, TIG","3.2, 3.3, 3.4, 3.0, 3.1, 3.1.1, 1.1, 1.2, 1.0","{""Classes"":{""Include"":[""ALL""]},""Domains"":{""Include"":[""ALL""]},""Use_Case"":""INDH, PROD, NONCLIN""}",Fully Executable,Published,"['SDTMIG', 'SENDIG', 'SENDIG-DART', 'SENDIG-GENETOX', 'TIG']","['CG0014', 'SEND12', 'TIG0299', 'TIG0057']",['CG0014']
CDISC.SDTMIG.CG0015,CG0015,CG0015,Variable Core Status = Permissible and data is collected,Variable Core Status = Permissible and data is collected,SDTMIG,"3.2, 3.3, 3.4","{""Classes"":{""Include"":[""ALL""]},""Domains"":{""Include"":[""ALL""]}}",Fully Executable,Draft,['SDTMIG'],['CG0015'],['CG0015']
CORE-000334,CG0016,"CG0016, TIG0301, SEND13, TIG0065",At least one expected variable is missing from dataset,Raise an error when an expected variable is not present in the dataset.,"SDTMIG, TIG, SENDIG, SENDIG-GENETOX, SENDIG-DART","3.4, 3.3, 3.2, 1.0, 3.0, 3.1, 3.1.1, 1.1, 1.2","{""Classes"":{""Include"":[""ALL""]},""Domains"":{""Include"":[""ALL""]},""Use_Case"":""INDH, PROD, NONCLIN""}",Fully Executable,Published,"['SDTMIG', 'TIG', 'SENDIG', 'SENDIG-GENETOX', 'SENDIG-DART']","['CG0016', 'TIG0301', 'SEND13', 'TIG0065']",['CG0016']
CORE-000510,CG0017,CG0017,Split dataset name is not 3 or 4 characters in length,Split datasets (excluding supplemental qualifiers) is expected to have a have a length of 3 or 4 characters,SDTMIG,"3.4, 3.2, 3.3","{""Classes"":{""Include"":[""ALL""]},""Domains"":{""Exclude"":[""SUPP--"",""AP--""],""include_split_datasets"":true}}",Fully Executable,Published,['SDTMIG'],['CG0017'],['CG0017']
CORE-000357,CG0018,"CG0018, TIG0303",Supplemental qualifier dataset associated with a split dataset is greater than 8 characters in length,"When a supplemental qualifier dataset is associated with a split dataset, the dataset name length must not be greater than 8 characters.","SDTMIG, TIG","3.4, 3.2, 3.3, 1.0","{""Classes"":{""Include"":[""ALL""]},""Domains"":{""Include"":[""SUPP--""],""include_split_datasets"":true},""Use_Case"":""INDH, PROD""}",Fully Executable,Published,"['SDTMIG', 'TIG']","['CG0018', 'TIG0303']",['CG0018']
CDISC.SDTMIG.CG0019,CG0019,CG0019,Records are not unique as per sponsor defined key variables as documented in the define.xml,Trigger error if records are not unique as per sponsor defined key variables as documented in the define.xml,SDTMIG,"3.4, 3.2, 3.3","{""Classes"":{""Include"":[""ALL""]},""Domains"":{""Include"":[""ALL""]}}",Fully Executable,Draft,['SDTMIG'],['CG0019'],['CG0019']
CORE-000344,CG0020,CG0020,"Variable is not equal to value within the extensible codelist, nor equal to MULTIPLE","Trigger error if the value of a variable, which is associated with an extensible codelist, is in the associated codelist or equal to 'MULTIPLE'",SDTMIG,"3.4, 3.2, 3.3","{""Classes"":{""Include"":[""ALL""]},""Domains"":{""Include"":[""ALL""]}}",Not Executable,Draft,['SDTMIG'],['CG0020'],['CG0020']
CORE-000345,CG0021,CG0021,"Variable is not equal to value within the extensible codelist, nor equal to OTHER","Trigger error if the value of a variable, which is associated with an extensible codelist, is in the associated codelist or equal to 'OTHER'",SDTMIG,"3.4, 3.2, 3.3","{""Classes"":{""Include"":[""ALL""]},""Domains"":{""Include"":[""ALL""]}}",Not Executable,Draft,['SDTMIG'],['CG0021'],['CG0021']
CORE-000358,CG0022,"CG0022, TIG0306",LNKGRP variable is not found in any of the other domains.,Verify that when --LNKGRP is present in one domain it is also present in another domain.,"SDTMIG, TIG","3.4, 3.3, 3.2, 1.0","{""Classes"":{""Include"":[""ALL""]},""Domains"":{""Include"":[""ALL""]},""Use_Case"":""INDH, PROD""}",Fully Executable,Published,"['SDTMIG', 'TIG']","['CG0022', 'TIG0306']",['CG0022']
CORE-000571,CG0024,"CG0024, TIG0307",LNKID variable is only found in one domain.,Verify that when --LNKID is present in one domain it is also present in another domain.,"SDTMIG, TIG","3.4, 3.3, 3.2, 1.0","{""Classes"":{""Include"":[""ALL""]},""Domains"":{""Include"":[""ALL""]},""Use_Case"":""INDH, PROD""}",Fully Executable,Published,"['SDTMIG', 'TIG']","['CG0024', 'TIG0307']",['CG0024']
CORE-000248,CG0026,"CG0026, SEND63, TIG0265, TIG0308, FB3702",'--RFTDTC is populated when --TPTREF is null,Trigger error when --TPTREF = null and --RFTDTC is populated,"SDTMIG, SENDIG, SENDIG-DART, SENDIG-GENETOX, TIG, SENDIG-AR","3.4, 3.3, 3.2, 3.0, 3.1, 3.1.1, 1.1, 1.2, 1.0","{""Classes"":{""Include"":[""ALL""]},""Domains"":{""Include"":[""ALL""]},""Use_Case"":""INDH, PROD, NONCLIN""}",Fully Executable,Published,"['SDTMIG', 'SENDIG', 'SENDIG-DART', 'SENDIG-GENETOX', 'TIG', 'SENDIG-AR']","['CG0026', 'SEND63', 'TIG0265', 'TIG0308', 'FB3702']","['CG0026', 'FB3702']"
CORE-000237,CG0027,"CG0027, SEND43, TIG0309",'--SCAT is equal to --CAT,Trigger error when --SCAT is not null and --SCAT is equal to --CAT,"SDTMIG, SENDIG, SENDIG-GENETOX, SENDIG-DART, TIG","3.4, 3.3, 3.2, 3.0, 3.1, 3.1.1, 1.0, 1.1, 1.2","{""Classes"":{""Include"":[""ALL""]},""Domains"":{""Include"":[""ALL""]},""Use_Case"":""INDH, PROD""}",Fully Executable,Published,"['SDTMIG', 'SENDIG', 'SENDIG-GENETOX', 'SENDIG-DART', 'TIG']","['CG0027', 'SEND43', 'TIG0309']",['CG0027']
CORE-000544,CG0028,CG0028,"'--SEQ is not a unique number per USUBJID per domain, nor a unique number per POOLID per domain, including when the domain is split into multiple files","Excluding TS.TSSEQ, raise an error when --SEQ is not a unique number per USUBJID per domain, or not a unique number per POOLID per domain, including when the domain is split into multiple files.",SDTMIG,"3.4, 3.2, 3.3","{""Classes"":{""Include"":[""ALL""]},""Domains"":{""Exclude"":[""TS""]}}",Fully Executable,Published,['SDTMIG'],['CG0028'],['CG0028']
CORE-000201,CG0029,"CG0029, TIG0311, SEND109, TIG0046",USUBJID is not found in DM.USUBJID,Trigger error when domain is not an AP-- domain and USUBJID is not present in DM.USUBJID,"SDTMIG, TIG, SENDIG, SENDIG-DART, SENDIG-GENETOX","3.4, 3.3, 3.2, 1.0, 3.0, 3.1, 3.1.1, 1.1, 1.2","{""Classes"":{""Include"":[""ALL""]},""Domains"":{""Exclude"":[""AP--""]},""Use_Case"":""NONCLIN, INDH""}",Fully Executable,Published,"['SDTMIG', 'TIG', 'SENDIG', 'SENDIG-DART', 'SENDIG-GENETOX']","['CG0029', 'TIG0311', 'SEND109', 'TIG0046']",['CG0029']
CORE-000269,CG0031,"CG0031, TIG0312","For a planned visit (SVPRESP = 'Y'), non-missing VISIT value must be among those present in TV.VISIT.","Verify when VISIT is not null in any given domain and VISIT is planned (SVPRESP = 'Y'), then VISIT should be among TV.VISIT.","SDTMIG, TIG","3.4, 3.3, 3.2, 1.0","{""Classes"":{""Include"":[""ALL""]},""Domains"":{""Exclude"":[""TV""]},""Use_Case"":""INDH""}",Fully Executable,Published,"['SDTMIG', 'TIG']","['CG0031', 'TIG0312']",['CG0031']
CORE-000249,CG0032,"CG0032, TIG0313",Visit Day cannot be found in Trial Visit (TV) domain,Verify that visitdy is planned and exists in TV,"SDTMIG, TIG","3.4, 3.3, 3.2, 1.0","{""Classes"":{""Include"":[""ALL""]},""Domains"":{""Exclude"":[""TV""]},""Use_Case"":""INDH""}",Fully Executable,Published,"['SDTMIG', 'TIG']","['CG0032', 'TIG0313']",['CG0032']
CORE-000270,CG0033,"CG0033, TIG0314","For a planned visit (SVPRESP = 'Y'), non-missing VISITNUM value must be among those present in TV.VISITNUM. in TV.VISITNUM","Verify when VISITNUM is not null in any given domain and VISITNUM is planned (SVPRESP = 'Y'), then VISIT should be among TV.VISITNUM.","SDTMIG, TIG","3.4, 3.3, 3.2, 1.0","{""Classes"":{""Include"":[""ALL""]},""Domains"":{""Exclude"":[""TV""]},""Use_Case"":""INDH""}",Fully Executable,Published,"['SDTMIG', 'TIG']","['CG0033', 'TIG0314']",['CG0033']
CORE-000168,CG0034,"CG0034, TIG0315",VISITNUM is not among VISITNUM in SV domain.,If VISITNUM is not null then VISITNUM should be among SV.VISITNUM,"SDTMIG, TIG","3.4, 3.3, 3.2, 1.0","{""Classes"":{""Include"":[""ALL""]},""Domains"":{""Exclude"":[""SV""]},""Use_Case"":""INDH""}",Fully Executable,Published,"['SDTMIG', 'TIG']","['CG0034', 'TIG0315']",['CG0034']
CORE-000361,CG0035,"CG0035, TIG0316, FB0919",VISIT and VISITNUM do not have a one-to-one relationship,Trigger error when VISITNUM is present in TV.VISITNUM and does not have a one-to-one relationship with VISIT,"SDTMIG, TIG","3.4, 3.3, 3.2, 1.0","{""Classes"":{""Include"":[""ALL""]},""Domains"":{""Include"":[""ALL""]},""Use_Case"":""INDH""}",Fully Executable,Published,"['SDTMIG', 'TIG']","['CG0035', 'TIG0316', 'FB0919']","['CG0035', 'FB0919']"
CORE-000362,CG0037,CG0037,Primary analysis was used but --SOCCD and --BDSYCD are not equal,Raise an error when primary SOC is used for analysis and SOC Code is not equal to Body System Code,SDTMIG,"3.4, 3.3, 3.2","{""Classes"":{""Include"":[""EVENTS""]},""Domains"":{""Exclude"":[""DS"",""DV"",""HO""]}}",Fully Executable,Published,['SDTMIG'],['CG0037'],['CG0037']
CORE-000264,CG0039,CG0039,Primary analysis used but --BODSYS and --SOC are not equal,Raise an error if primary SOC is used for analysis and -BODSYS is not equal to -SOC,SDTMIG,"3.4, 3.3, 3.2","{""Classes"":{""Include"":[""EVENTS""]},""Domains"":{""Exclude"":[""DS"",""DV"",""HO""]}}",Fully Executable,Published,['SDTMIG'],['CG0039'],['CG0039']
CORE-000012,CG0040,"CG0040, TIG0319",AEOCCUR is present in AE dataset.,Raise an error when AEOCCUR exists in AE dataset.,"SDTMIG, TIG","3.4, 3.3, 3.2, 1.0","{""Classes"":{""Include"":[""EVENTS""]},""Domains"":{""Include"":[""AE""]},""Use_Case"":""INDH""}",Fully Executable,Published,"['SDTMIG', 'TIG']","['CG0040', 'TIG0319']",['CG0040']
CORE-000022,CG0041,"CG0041, TIG0320","At least one of the Seriousness criteria (AESCAN, AESCONG, AESDISAB, AESDTH, AESHOSP, AESLIFE, AESOD or AESMIE)  = 'Y', but AESER = 'N' or empty.","Raise an error when AESCAN, AESCONG, AESDISAB, AESDTH, AESHOSP, AESLIFE, AESOD or AESMIE = 'Y' and AESER = 'N' or is empty.","SDTMIG, TIG","3.4, 3.3, 3.2, 1.0","{""Classes"":{""Include"":[""EVENTS""]},""Domains"":{""Include"":[""AE""]},""Use_Case"":""INDH""}",Fully Executable,Published,"['SDTMIG', 'TIG']","['CG0041', 'TIG0320']",['CG0041']
CORE-000266,CG0042,"CG0042, TIG0321","If AESER = ""N"" then none of the seriousness criteria (AESCAN, AESCONG, AESDISAB, AESDTH, AESHOSP, AESLIFE, AESOD, AESMIE) could be equal to ""Y"".","Select record where AESCAN and AESCONG and AESDISAB and AESDTH and AESHOSP and AESLIFE and AESOD and AESMIE ^= ""Y"" However, AESER ^= ""N""","SDTMIG, TIG","3.4, 3.2, 3.3, 1.0","{""Classes"":{""Include"":[""EVENTS""]},""Domains"":{""Include"":[""AE""]},""Use_Case"":""INDH""}",Fully Executable,Published,"['SDTMIG', 'TIG']","['CG0042', 'TIG0321']",['CG0042']
CORE-000597,CG0043,"CG0043, TIG0322",Missing AESMIE=Y where SUPPAE.QNAM=AESOSP,"When SUPPAE.QNAM=AESOSP is present, a record with AESMIE=Y should be present","SDTMIG, TIG","3.4, 3.2, 3.3, 1.0","{""Classes"":{""Include"":[""EVENTS""]},""Domains"":{""Include"":[""AE""]},""Use_Case"":""INDH""}",Fully Executable,Published,"['SDTMIG', 'TIG']","['CG0043', 'TIG0322']",['CG0043']
CORE-000013,CG0044,"CG0044, TIG0323",AESTAT variable is present in AE dataset.,Raise an error when AESTAT is present in AE dataset.,"SDTMIG, TIG","3.4, 3.3, 3.2, 1.0","{""Classes"":{""Include"":[""EVENTS""]},""Domains"":{""Include"":[""AE""]},""Use_Case"":""INDH""}",Fully Executable,Published,"['SDTMIG', 'TIG']","['CG0044', 'TIG0323']",['CG0044']
CORE-000106,CG0045,"CG0045, TIG0324","'--ENTPT is completed, but --ENRTPT is not completed.",Raise an error when --ENTPT is completed and --ENRTPT is not completed.,"SDTMIG, TIG","3.4, 3.3, 3.2, 1.0","{""Classes"":{""Include"":[""ALL""]},""Domains"":{""Include"":[""ALL""]},""Use_Case"":""INDH, PROD""}",Fully Executable,Published,"['SDTMIG', 'TIG']","['CG0045', 'TIG0324']",['CG0045']
CORE-000265,CG0046,"CG0046, TIG0325, FB4402","'--ENRTPT is completed, but --ENTPT is not completed.",Raise an error when --ENRTPT is completed and --ENTPT is not completed.,"SDTMIG, TIG, SENDIG, SENDIG-DART, SENDIG-AR, SENDIG-GENETOX","3.4, 3.3, 3.2, 1.0, 3.0, 3.1, 3.1.1, 1.1, 1.2","{""Classes"":{""Include"":[""ALL""]},""Domains"":{""Include"":[""ALL""]},""Use_Case"":""INDH, PROD""}",Fully Executable,Published,"['SDTMIG', 'TIG', 'SENDIG', 'SENDIG-DART', 'SENDIG-AR', 'SENDIG-GENETOX']","['CG0046', 'TIG0325', 'FB4402']","['CG0046', 'FB4402']"
CORE-000346,CG0047,CG0047,'--MODIFY is not populated when --TERM has been modified for coding,Trigger error when --TERM has been modified for coding and --MODIFY is null,SDTMIG,"3.4, 3.2, 3.3","{""Classes"":{""Include"":[""EVENTS""]},""Domains"":{""Include"":[""ALL""]}}",Not Executable,Draft,['SDTMIG'],['CG0047'],['CG0047']
CORE-000268,CG0049,"CG0049, TIG0327",'--DECOD and --PTCD do not have a one-to-one relationship,Trigger error when --DECOD and --PTCD do not have a one-to-one relationship,"SDTMIG, TIG","3.4, 3.3, 3.2, 1.0","{""Classes"":{""Include"":[""EVENTS""]},""Domains"":{""Include"":[""ALL""]},""Use_Case"":""INDH""}",Fully Executable,Published,"['SDTMIG', 'TIG']","['CG0049', 'TIG0327']",['CG0049']
CORE-000267,CG0050,"CG0050, TIG0328",'--DECOD should be populated when --PTCD is populated,Raise an error when --DECOD is not populated but --PTCD is populated,"SDTMIG, TIG","3.4, 3.3, 3.2, 1.0","{""Classes"":{""Include"":[""EVENTS""]},""Domains"":{""Include"":[""ALL""]},""Use_Case"":""INDH""}",Fully Executable,Published,"['SDTMIG', 'TIG']","['CG0050', 'TIG0328']",['CG0050']
CORE-000030,CG0053,"CG0053, TIG0329",'--REASND should not be present in dataset when --PRESP is not present in dataset,Raise and error when --REASND is present in dataset and --PRESP is not present in dataset,"SDTMIG, TIG","3.4, 3.3, 3.2, 1.0","{""Classes"":{""Include"":[""EVENTS"",""INTERVENTIONS""]},""Domains"":{""Exclude"":[""DS"",""DV"",""EX""]},""Use_Case"":""INDH, PROD""}",Fully Executable,Published,"['SDTMIG', 'TIG']","['CG0053', 'TIG0329']",['CG0053']
CORE-000081,CG0056,"CG0056, TIG0330",'--STAT is present when --PRESP is not present.,Raise an error when --PRESP is not present but --STAT is present.,"SDTMIG, TIG","3.4, 3.3, 3.2, 1.0","{""Classes"":{""Include"":[""EVENTS"",""INTERVENTIONS""]},""Domains"":{""Exclude"":[""DS"",""DV"",""EX""]},""Use_Case"":""INDH, PROD""}",Fully Executable,Published,"['SDTMIG', 'TIG']","['CG0056', 'TIG0330']",['CG0056']
CORE-000084,CG0057,"CG0057, TIG0331","'--ENTPT exists in a dataset, but --ENRTPT does not exist.",Raise an error when --ENTPT exists in a dataset and --ENRTPT does not exist.,"SDTMIG, TIG","3.4, 3.3, 3.2, 1.0","{""Classes"":{""Include"":[""ALL""]},""Domains"":{""Include"":[""ALL""]},""Use_Case"":""INDH, PROD""}",Fully Executable,Published,"['SDTMIG', 'TIG']","['CG0057', 'TIG0331']",['CG0057']
CORE-000171,CG0058,"CG0058, TIG0332",'--ENTPT should be present when --ENRTPT is present in a dataset,Raises an error when --ENRTPT is present in dataset but --ENTPT is not present in dataset.,"SDTMIG, TIG","3.4, 3.3, 3.2, 1.0","{""Classes"":{""Include"":[""ALL""]},""Domains"":{""Include"":[""ALL""]},""Use_Case"":""INDH, PROD""}",Fully Executable,Published,"['SDTMIG', 'TIG']","['CG0058', 'TIG0332']",['CG0058']
CORE-000085,CG0059,"CG0059, TIG0333",'--STTPT is completed and --STRTPT is empty,Raise an error when --STTPT is completed and --STRTPT is empty,"SDTMIG, TIG","3.4, 3.3, 3.2, 1.0","{""Classes"":{""Include"":[""ALL""]},""Domains"":{""Include"":[""ALL""]},""Use_Case"":""INDH, PROD""}",Fully Executable,Published,"['SDTMIG', 'TIG']","['CG0059', 'TIG0333']",['CG0059']
CORE-000261,CG0060,"CG0060, TIG0334","'--STTPT is present in dataset, but --STRTPT is not present in dataset.",Raise an error when --STTPT is present in dataset and --STRTPT is not present in dataset.,"SDTMIG, TIG","3.4, 3.3, 3.2, 1.0","{""Classes"":{""Include"":[""ALL""]},""Domains"":{""Include"":[""ALL""]},""Use_Case"":""INDH, PROD""}",Fully Executable,Published,"['SDTMIG', 'TIG']","['CG0060', 'TIG0334']",['CG0060']
CORE-000257,CG0061,"CG0061, TIG0335, FB4401","'--STRTPT is completed, but --STTPT is not completed.",Raise an error when --STRTPT is completed and --STTPT is not completed.,"SDTMIG, TIG, SENDIG, SENDIG-DART, SENDIG-AR, SENDIG-GENETOX","3.4, 3.3, 3.2, 1.0, 3.0, 3.1, 3.1.1, 1.1, 1.2","{""Classes"":{""Include"":[""ALL""]},""Domains"":{""Include"":[""ALL""]},""Use_Case"":""INDH, PROD""}",Fully Executable,Published,"['SDTMIG', 'TIG', 'SENDIG', 'SENDIG-DART', 'SENDIG-AR', 'SENDIG-GENETOX']","['CG0061', 'TIG0335', 'FB4401']","['CG0061', 'FB4401']"
CORE-000258,CG0062,"CG0062, TIG0336","'--STRTPT is present in dataset, but --STTPT is not present in dataset.",Raise an error when --STRTPT is present in dataset and --STTPT is not present in dataset.,"SDTMIG, TIG","3.4, 3.3, 3.2, 1.0","{""Classes"":{""Include"":[""ALL""]},""Domains"":{""Include"":[""ALL""]},""Use_Case"":""INDH, PROD""}",Fully Executable,Published,"['SDTMIG', 'TIG']","['CG0062', 'TIG0336']",['CG0062']
CORE-000329,CG0063,CG0063,Multiple records within same USUBJID exist with DSCAT = DISPOSITION EVENT but EPOCH is empty,Raise an error when multiple records within same USUBJID exist with DSCAT = DISPOSITION EVENT but EPOCH is empty,SDTMIG,3.2,"{""Classes"":{""Include"":[""EVENTS""]},""Domains"":{""Include"":[""DS""]}}",Fully Executable,Published,['SDTMIG'],['CG0063'],['CG0063']
CORE-000033,CG0065,"CG0065, TIG0337","DSDECOD is not equal to ""COMPLETED"" when DSTERM equals ""COMPLETED"".","Raise an error when DSTERM = ""COMPLETED"" and DSDECOD not equal to ""COMPLETED"".","SDTMIG, TIG","3.4, 3.3, 3.2, 1.0","{""Classes"":{""Include"":[""EVENTS""]},""Domains"":{""Include"":[""DS""]},""Use_Case"":""INDH""}",Fully Executable,Published,"['SDTMIG', 'TIG']","['CG0065', 'TIG0337']",['CG0065']
CORE-000322,CG0066,CG0066,DSCAT equals PROTOCOL MILESTONE but DSTERM is not equal to DSDECOD,"When DSCAT equals PROTOCOL MILESTONE, then DSTERM should be equal to DSDECOD",SDTMIG,3.2,"{""Classes"":{""Include"":[""EVENTS""]},""Domains"":{""Include"":[""DS""]}}",Fully Executable,Published,['SDTMIG'],['CG0066'],['CG0066']
CORE-000251,CG0067,"CG0067, FB0614","DSDECOD is not ""DEATH"", When SS.SSSTRESC = ""DEAD"".","When SS.SSSTRESC = ""DEAD"", the final disposition record must have DSDECOD ^= ""DEATH"".",SDTMIG,"3.4, 3.3, 3.2","{""Classes"":{""Include"":[""FINDINGS""]},""Domains"":{""Include"":[""SS""]}}",Fully Executable,Published,['SDTMIG'],"['CG0067', 'FB0614']","['CG0067', 'FB0614']"
CORE-000363,CG0068,"CG0068, TIG0338","The earliest disposition date for ""INFORMED CONSENT OBTAINED"" is not equal to DM.RFICDTC","When there are multiple informed consents obtained and DSDECOD = 'INFORMED CONSENT OBTAINED', the earliest DSSTDTC for each subject should be equal to DM.RFICDTC.","SDTMIG, TIG","3.4, 3.2, 3.3, 1.0","{""Classes"":{""Include"":[""EVENTS""]},""Domains"":{""Include"":[""DS""]},""Use_Case"":""INDH""}",Fully Executable,Published,"['SDTMIG', 'TIG']","['CG0068', 'TIG0338']",['CG0068']
CORE-000034,CG0069,"CG0069, TIG0339","DSSTDTC does not equal DM.DTHDTC, when DSDECOD equals ""DEATH"".","Raise an error when DSSTDTC is not equal to DM.DTHDTC and DSDECOD is equal to ""DEATH""","SDTMIG, TIG","3.4, 3.3, 3.2, 1.0","{""Classes"":{""Include"":[""EVENTS""]},""Domains"":{""Include"":[""DS""]},""Use_Case"":""INDH""}",Fully Executable,Published,"['SDTMIG', 'TIG']","['CG0069', 'TIG0339']",['CG0069']
CORE-000347,CG0071,"CG0071, TIG0340",DSTERM does not equal 'COMPLETED' or the reason for discontinuation when DSCAT = 'DISPOSITION EVENT',Trigger error when DSCAT = 'DISPOSITION EVENT' and DSTERM does not equal 'COMPLETED' or the reason for discontinuation,"SDTMIG, TIG","3.4, 3.2, 3.3, 1.0","{""Classes"":{""Include"":[""EVENTS""]},""Domains"":{""Include"":[""DS""]},""Use_Case"":""INDH""}",Not Executable,Draft,"['SDTMIG', 'TIG']","['CG0071', 'TIG0340']",['CG0071']
CORE-000364,CG0073,CG0073,EPOCH should be null if DSCAT is protocol milestone,,SDTMIG,3.2,"{""Classes"":{""Include"":[""EVENTS""]},""Domains"":{""Include"":[""DS""]}}",Fully Executable,Published,['SDTMIG'],['CG0073'],['CG0073']
CORE-000086,CG0075,"CG0075, TIG0341",DVSTDTC is earlier than RFICDTC in DM.,Raise an error when DVSTDTC is earlier than RFICDTC in DM.,"SDTMIG, TIG","3.4, 3.3, 3.2, 1.0","{""Classes"":{""Include"":[""EVENTS""]},""Domains"":{""Include"":[""DV""]},""Use_Case"":""INDH""}",Fully Executable,Published,"['SDTMIG', 'TIG']","['CG0075', 'TIG0341']",['CG0075']
CORE-000348,CG0076,CG0076,Deviation event must not be derived deviation,"Trigger error if deviation record is a derived variable, not a deviation that was collected",SDTMIG,"3.4, 3.2, 3.3","{""Classes"":{""Include"":[""EVENTS""]},""Domains"":{""Include"":[""DV""]}}",Not Executable,Draft,['SDTMIG'],['CG0076'],['CG0076']
CORE-000365,CG0077,CG0077,"MHCAT is grouping all records into one generic group. If no smaller categorization can be applied, then it is not necessary to include or populate this variable.","MHCAT should not group all records.  If no smaller categorization can be applied, then it is not necessary to include or populate this variable.",SDTMIG,"3.4, 3.2, 3.3","{""Classes"":{""Include"":[""EVENTS""]},""Domains"":{""Include"":[""MH""],""include_split_datasets"":true}}",Fully Executable,Published,['SDTMIG'],['CG0077'],['CG0077']
CORE-000250,CG0078,"CG0078, TIG0344",MHENDTC ^= null and MHENDTC is on or after the DM.RFSTDTC. The medical history dataset should include the subject's prior history at the start of the trial.,Raise an issue if MHENDTC has a non-empty date that is on or after DM.RFSTDTC,"SDTMIG, TIG","3.4, 3.3, 3.2, 1.0","{""Classes"":{""Include"":[""EVENTS""]},""Domains"":{""Include"":[""MH""]},""Use_Case"":""INDH""}",Fully Executable,Published,"['SDTMIG', 'TIG']","['CG0078', 'TIG0344']",['CG0078']
CORE-000236,CG0079,"CG0079, TIG0345",MHSTDTC ^= null and MHSTDTC is on or after the DM.RFSTDTC. The medical history dataset should include the subject's prior history at the start of the trial.,Raise an issue if MHSTDTC has a non-empty date that later than DM.RFSTDTC,"SDTMIG, TIG","3.4, 3.2, 3.3, 1.0","{""Classes"":{""Include"":[""EVENTS""]},""Domains"":{""Include"":[""MH""]},""Use_Case"":""INDH""}",Fully Executable,Published,"['SDTMIG', 'TIG']","['CG0079', 'TIG0345']",['CG0079']
CORE-000117,CG0081,"CG0081, TIG0346",'--STAT should equal 'NOT DONE' when --PRESP = 'Y' and --OCCUR = null,Raise an error when --STAT not equal to 'NOT DONE' when --PRESP = 'Y' and --OCCUR is null,"SDTMIG, TIG","3.4, 3.2, 3.3, 1.0","{""Classes"":{""Include"":[""EVENTS"",""INTERVENTIONS""]},""Domains"":{""Exclude"":[""DS"",""DV"",""EX""]},""Use_Case"":""INDH, PROD""}",Fully Executable,Published,"['SDTMIG', 'TIG']","['CG0081', 'TIG0346']",['CG0081']
CORE-000024,CG0082,"CG0082, TIG0347",'--BODSYS is not empty and --BDSYCD is empty,"Raise an error if --BODSYS is not empty, --BDSYCD is empty","SDTMIG, TIG","3.4, 3.3, 3.2, 1.0","{""Classes"":{""Include"":[""EVENTS""]},""Domains"":{""Include"":[""ALL""]},""Use_Case"":""INDH""}",Fully Executable,Published,"['SDTMIG', 'TIG']","['CG0082', 'TIG0347']",['CG0082']
CORE-000184,CG0083,"CG0083, TIG0348",There is not a one-to-one relationship between --BODSYS and --BDSYSCD,There must be a one-to-one relationship between --BDSYSCD and --BODSYS,"SDTMIG, TIG","3.4, 3.3, 3.2, 1.0","{""Classes"":{""Include"":[""EVENTS""]},""Domains"":{""Include"":[""ALL""]},""Use_Case"":""INDH""}",Fully Executable,Published,"['SDTMIG', 'TIG']","['CG0083', 'TIG0348']",['CG0083']
CORE-000023,CG0084,"CG0084, TIG0349",'--TOX present in dataset even though --TOXGR is not,"Raise an error when --TOXGR is not present in dataset, but --TOX is present","SDTMIG, TIG","3.4, 3.3, 3.2, 1.0","{""Classes"":{""Include"":[""EVENTS"",""FINDINGS""]},""Domains"":{""Include"":[""ALL""]},""Use_Case"":""INDH, PROD""}",Fully Executable,Published,"['SDTMIG', 'TIG']","['CG0084', 'TIG0349']",['CG0084']
CORE-000260,CG0085,"CG0085, TIG0350",'--PRESP does not equal 'Y' or is not empty.,Raise an error when --PRESP does not equal 'Y' or is not empty.,"SDTMIG, TIG","3.4, 3.3, 3.2, 1.0","{""Classes"":{""Include"":[""EVENTS"",""INTERVENTIONS""]},""Domains"":{""Exclude"":[""DS"",""DV"",""EX""]},""Use_Case"":""INDH""}",Fully Executable,Published,"['SDTMIG', 'TIG']","['CG0085', 'TIG0350']",['CG0085']
CORE-000018,CG0086,"CG0086, TIG0351","'--OCCUR is blank when --PRESP is equal to ""Y"" and --STAT is not provided.","Raise an error when --PRESP is equal to ""Y"", --STAT is blank, --OCCUR is present in dataset and --OCCUR is blank","SDTMIG, TIG","3.4, 3.2, 3.3, 1.0","{""Classes"":{""Include"":[""EVENTS"",""INTERVENTIONS""]},""Domains"":{""Exclude"":[""AE"",""DS"",""DV"",""EX""]},""Use_Case"":""INDH""}",Fully Executable,Published,"['SDTMIG', 'TIG']","['CG0086', 'TIG0351']",['CG0086']
CORE-000014,CG0087,"CG0087, TIG0352","'--OCCUR should only be provided when --PRESP is equal to ""Y"".","Raise an error when --PRESP is not equals to ""Y"" and --OCCUR is present in dataset or --STAT is equal to ""NOT DONE"" and --OCCUR is not blank","SDTMIG, TIG","3.4, 3.2, 3.3, 1.0","{""Classes"":{""Include"":[""EVENTS"",""INTERVENTIONS""]},""Domains"":{""Exclude"":[""AE"",""DS"",""DV"",""EX""]},""Use_Case"":""INDH, PROD""}",Fully Executable,Published,"['SDTMIG', 'TIG']","['CG0087', 'TIG0352']",['CG0087']
CORE-000015,CG0088,"CG0088, TIG0353",'--PRESP is missing in dataset when --OCCUR is present.,Raise an error when --PRESP does not exists in a dataset and --OCCUR exist.,"SDTMIG, TIG","3.4, 3.2, 3.3, 1.0","{""Classes"":{""Include"":[""EVENTS"",""INTERVENTIONS""]},""Domains"":{""Exclude"":[""AE"",""DS"",""DV"",""EX""]},""Use_Case"":""INDH, PROD""}",Fully Executable,Published,"['SDTMIG', 'TIG']","['CG0088', 'TIG0353']",['CG0088']
CORE-000016,CG0089,"CG0089, TIG0354","'--PRESP should be populated as ""Y"" when --OCCUR is provided.","Raise an error when --OCCUR is not empty and --PRESP is not equal to ""Y"".","SDTMIG, TIG","3.4, 3.2, 3.3, 1.0","{""Classes"":{""Include"":[""EVENTS"",""INTERVENTIONS""]},""Domains"":{""Exclude"":[""AE"",""DS"",""DV"",""EX""]},""Use_Case"":""INDH""}",Fully Executable,Published,"['SDTMIG', 'TIG']","['CG0089', 'TIG0354']",['CG0089']
CORE-000165,CG0090,"CG0090, TIG0355, FB3701",'--TPTREF is not present when --RFTDTC is present in a dataset,Raise an error when --TPTREF is not present in dataset when --RFTDTC is present.,"SDTMIG, TIG, SENDIG, SENDIG-GENETOX, SENDIG-DART, SENDIG-AR","3.4, 3.3, 3.2, 1.0, 3.0, 3.1, 3.1.1, 1.1, 1.2","{""Classes"":{""Include"":[""ALL""]},""Domains"":{""Include"":[""ALL""]},""Use_Case"":""INDH, PROD""}",Fully Executable,Published,"['SDTMIG', 'TIG', 'SENDIG', 'SENDIG-GENETOX', 'SENDIG-DART', 'SENDIG-AR']","['CG0090', 'TIG0355', 'FB3701']","['CG0090', 'FB3701']"
CORE-000166,CG0091,"CG0091, TIG0356",'--TPT is not present when --TPTNUM is present in a dataset,Raise an error when --TPT is not present but --TPTNUM is present in dataset.,"SDTMIG, TIG","3.4, 1.0","{""Classes"":{""Include"":[""ALL""]},""Domains"":{""Include"":[""ALL""]},""Use_Case"":""INDH, PROD""}",Fully Executable,Published,"['SDTMIG', 'TIG']","['CG0091', 'TIG0356']",['CG0091']
CORE-000167,CG0092,"CG0092, TIG0357",'--TPTREF must be present when --ELTM is present in a dataset,Raise an error when--ELTM is present but --TPTREF is not present in dataset.,"SDTMIG, TIG","3.4, 3.2, 3.3, 1.0","{""Classes"":{""Include"":[""ALL""]},""Domains"":{""Include"":[""ALL""]},""Use_Case"":""INDH, PROD""}",Fully Executable,Published,"['SDTMIG', 'TIG']","['CG0092', 'TIG0357']",['CG0092']
CORE-000080,CG0093,"CG0093, TIG0358","'--TPTREF is present when --ELTM, --TPTNUM, and --TPT are not present.","Raise an error when --ELTM, --TPTNUM, and --TPT are not present in dataset, but --TPTREF is present.","SDTMIG, TIG","3.4, 3.2, 3.3, 1.0","{""Classes"":{""Include"":[""ALL""]},""Domains"":{""Include"":[""ALL""]},""Use_Case"":""INDH, PROD""}",Fully Executable,Published,"['SDTMIG', 'TIG']","['CG0093', 'TIG0358']",['CG0093']
CORE-000225,CG0094,"CG0094, TIG0359","'--STAT should be ""NOT DONE"" when --REASND is provided.","Raise an error when --REASND is provided and --STAT is not equal to ""NOT DONE"".","SDTMIG, TIG","3.4, 3.2, 3.3, 1.0","{""Classes"":{""Include"":[""ALL""]},""Domains"":{""Exclude"":[""EX"",""AE"",""DS"",""DV"",""IE""]},""Use_Case"":""INDH, PROD""}",Fully Executable,Published,"['SDTMIG', 'TIG']","['CG0094', 'TIG0359']",['CG0094']
CORE-000079,CG0095,CG0095,'--LAT is present when --LOC is not present.,Raise an error when --LOC is not present and --LAT is present.,SDTMIG,"3.4, 3.2, 3.3","{""Classes"":{""Include"":[""ALL""]},""Domains"":{""Include"":[""ALL""]}}",Fully Executable,Published,['SDTMIG'],['CG0095'],['CG0095']
CDISC.SDTMIG.CG0096,CG0096,CG0096,CMDECOD must be populated when CMTRT is populated,"Raise an error when CMTRT is populated, CMDECOD is empty",SDTMIG,"3.4, 3.2, 3.3","{""Classes"":{""Include"":[""INTERVENTIONS""]},""Domains"":{""Include"":[""CM""]}}",Fully Executable,Draft,['SDTMIG'],['CG0096'],['CG0096']
CDISC.SDTMIG.CG0097,CG0097,CG0097,CMTRT was not collected on CRF,Trigger error if CMTRT was not collected on CRF,SDTMIG,"3.4, 3.2, 3.3","{""Classes"":{""Include"":[""INTERVENTIONS""]},""Domains"":{""Include"":[""CM""]}}",Fully Executable,Draft,['SDTMIG'],['CG0097'],['CG0097']
CORE-000349,CG0098,CG0098,CMTRT must record the collected medication name only,Trigger error if CMTRT contains more than just the medication name,SDTMIG,"3.4, 3.2, 3.3","{""Classes"":{""Include"":[""INTERVENTIONS""]},""Domains"":{""Include"":[""CM""]}}",Not Executable,Draft,['SDTMIG'],['CG0098'],['CG0098']
CORE-000350,CG0099,CG0099,'--MODIFY is null when --TRT represents an alteration to the collected value.,Trigger error if --TRT represents an alteration to the collected value for coding purposes and --MODIFY is null,SDTMIG,"3.4, 3.2, 3.3","{""Classes"":{""Include"":[""INTERVENTIONS""]},""Domains"":{""Include"":[""CM"",""SU""]}}",Not Executable,Draft,['SDTMIG'],['CG0099'],['CG0099']
CORE-000137,CG0100,"CG0100, TIG0365","ECOCCUR is not 'N', ECSTAT and ECDOSTXT are both empty but ECDOSE is less than or equal to 0.","Raise an error when ECOCCUR is not equal to 'N', ECSTAT and ECDOSTXT are both empty but ECDOSE less than or equal to 0.","SDTMIG, TIG","3.4, 3.3, 3.2, 1.0","{""Classes"":{""Include"":[""INTERVENTIONS""]},""Domains"":{""Include"":[""EC""]},""Use_Case"":""INDH""}",Fully Executable,Published,"['SDTMIG', 'TIG']","['CG0100', 'TIG0365']",['CG0100']
CORE-000004,CG0101,"CG0101, TIG0366","ECOCCUR indicates dose was not given, but ECDOSE is not blank or has a value less than or equal to 0","When ECOCCUR indicates no dose, then ECDOSE needs to be null or > 0; it cannot be used to indicate a dose wasn't taken.","SDTMIG, TIG","3.4, 3.2, 3.3, 1.0","{""Classes"":{""Include"":[""INTERVENTIONS""]},""Domains"":{""Include"":[""EC""]},""Use_Case"":""INDH""}",Fully Executable,Published,"['SDTMIG', 'TIG']","['CG0101', 'TIG0366']",['CG0101']
CORE-000005,CG0102,CG0102,"EXTRT is PLACEBO, but EXDOSE is not equal to 0.","When EXTRT is PLACEBO, EXDOSE must equal 0",SDTMIG,"3.4, 3.2, 3.3","{""Classes"":{""Include"":[""INTERVENTIONS""]},""Domains"":{""Include"":[""EX""]}}",Fully Executable,Published,['SDTMIG'],['CG0102'],['CG0102']
CDISC.SDTMIG.CG0103,CG0103,CG0103,EXDOSU is not expressed using protocol-specific units,Trigger error if EXDOSU not expressed in protocol-specified units,SDTMIG,"3.4, 3.2, 3.3","{""Classes"":{""Include"":[""INTERVENTIONS""]},""Domains"":{""Include"":[""EX""]}}",Fully Executable,Draft,['SDTMIG'],['CG0103'],['CG0103']
CDISC.SDTMIG.CG0104,CG0104,CG0104,EXTRT is not a protocol-specified treatment,Trigger error if EXTRT is not the protocol-specified treatment,SDTMIG,"3.4, 3.2, 3.3","{""Classes"":{""Include"":[""INTERVENTIONS""]},""Domains"":{""Include"":[""EX""]}}",Fully Executable,Draft,['SDTMIG'],['CG0104'],['CG0104']
CORE-000291,CG0105,"CG0105, TIG0370",EXVAMT is present when EC exists.,"When EC exists, EXVAMT should not be used.","SDTMIG, TIG","3.4, 3.3, 3.2, 1.0","{""Classes"":{""Include"":[""INTERVENTIONS""]},""Domains"":{""Include"":[""EX""]},""Use_Case"":""INDH""}",Fully Executable,Published,"['SDTMIG', 'TIG']","['CG0105', 'TIG0370']",['CG0105']
CORE-000089,CG0106,CG0106,"Value for --VAMT is populated, when --TRTV is NULL.","Raise an error when --TRTV is empty, --VAMT is not empty",SDTMIG,"3.4, 3.2, 3.3","{""Classes"":{""Include"":[""INTERVENTIONS""]},""Domains"":{""Include"":[""ALL""]}}",Fully Executable,Published,['SDTMIG'],['CG0106'],['CG0106']
CORE-000292,CG0107,CG0107,EXVAMTU is present when EC domain exists.,"When EC exists, EXVAMTU should not be used.",SDTMIG,"3.4, 3.2, 3.3","{""Classes"":{""Include"":[""INTERVENTIONS""]},""Domains"":{""Include"":[""EX""]}}",Fully Executable,Published,['SDTMIG'],['CG0107'],['CG0107']
CORE-000091,CG0108,CG0108,"Value for --VAMTU is populated, when --TRTV is NULL.","Raise an error when --TRTV is null, --VAMTU is not null",SDTMIG,"3.4, 3.2, 3.3","{""Classes"":{""Include"":[""INTERVENTIONS""]},""Domains"":{""Include"":[""ALL""]}}",Fully Executable,Published,['SDTMIG'],['CG0108'],['CG0108']
CORE-000366,CG0109,CG0109,"Subject has no records in EX but ACTARMCD is not equal to SCRNFAIL, NOTASSGN or NOTTRT.","Raise an error when subject has no records in EX but ACTARMCD is not equal to SCRNFAIL, NOTASSGN or NOTTRT.",SDTMIG,3.2,"{""Classes"":{""Include"":[""SPECIAL PURPOSE""]},""Domains"":{""Include"":[""DM""]}}",Fully Executable,Published,['SDTMIG'],['CG0109'],['CG0109']
CORE-000092,CG0110,"CG0110, CG0111, TIG0374, TIG0375",Both --DOSE and --DOSTXT values are populated,Raise an error when --DOSE ^= null and --DOSTXT ^= null.,"SDTMIG, TIG","3.4, 3.2, 3.3, 1.0","{""Classes"":{""Include"":[""INTERVENTIONS""]},""Domains"":{""Include"":[""ALL""]},""Use_Case"":""INDH""}",Fully Executable,Published,"['SDTMIG', 'TIG']","['CG0110', 'CG0111', 'TIG0374', 'TIG0375']","['CG0110', 'CG0111']"
CORE-000092,CG0111,"CG0110, CG0111, TIG0374, TIG0375",Both --DOSE and --DOSTXT values are populated,Raise an error when --DOSE ^= null and --DOSTXT ^= null.,"SDTMIG, TIG","3.4, 3.2, 3.3, 1.0","{""Classes"":{""Include"":[""INTERVENTIONS""]},""Domains"":{""Include"":[""ALL""]},""Use_Case"":""INDH""}",Fully Executable,Published,"['SDTMIG', 'TIG']","['CG0110', 'CG0111', 'TIG0374', 'TIG0375']","['CG0110', 'CG0111']"
CORE-000094,CG0112,"CG0112, TIG0376",'--DOSTXT value is numeric.,Raise an error if --DOSTXT value is numeric.,"SDTMIG, TIG","3.4, 3.2, 3.3, 1.0","{""Classes"":{""Include"":[""INTERVENTIONS""]},""Domains"":{""Include"":[""ALL""]},""Use_Case"":""INDH""}",Fully Executable,Published,"['SDTMIG', 'TIG']","['CG0112', 'TIG0376']",['CG0112']
CORE-000093,CG0114,"CG0114, TIG0377","Missing value for --DOSU, when --DOSE, --DOSTXT or --DOSTOT is provided",Raise an error when --DOSU = null and (--DOSE ^= null or --DOSTOT ^= null or --DOSTXT ^= null),"SDTMIG, TIG","3.4, 3.2, 3.3, 1.0","{""Classes"":{""Include"":[""INTERVENTIONS""]},""Domains"":{""Include"":[""ALL""]},""Use_Case"":""INDH""}",Fully Executable,Published,"['SDTMIG', 'TIG']","['CG0114', 'TIG0377']",['CG0114']
CORE-000096,CG0115,"CG0115, TIG0378","'--PORTOT variable is present, when --LOC variable does not exist in a dataset.","Raise an error when --LOC does not exists in a dataset, --PORTOT exists.","SDTMIG, TIG","3.4, 3.2, 3.3, 1.0","{""Classes"":{""Include"":[""INTERVENTIONS"",""FINDINGS"",""EVENTS""]},""Domains"":{""Include"":[""ALL""]},""Use_Case"":""INDH, PROD""}",Fully Executable,Published,"['SDTMIG', 'TIG']","['CG0115', 'TIG0378']",['CG0115']
CORE-000098,CG0116,"CG0116, TIG0379","'--DIR variable is present, when --LOC variable does not exist in a dataset.","Raise an error when --LOC does not exists in a dataset, --DIR exists.","SDTMIG, TIG","3.4, 3.2, 3.3, 1.0","{""Classes"":{""Include"":[""INTERVENTIONS"",""FINDINGS"",""EVENTS""]},""Domains"":{""Include"":[""ALL""]},""Use_Case"":""INDH, PROD""}",Fully Executable,Published,"['SDTMIG', 'TIG']","['CG0116', 'TIG0379']",['CG0116']
CORE-000367,CG0117,"CG0117, CG0118","ACTARM is not in TA.ARM, but ACTARM in DM does not equal Screen Failure, Not Assigned, Not Treated, or Unplanned Treatment.","Raise an error when no TA.ARM exists for ACTARM in DM and ACTARM does not equal Screen Failure, Not Assigned, Not Treated, or Unplanned Treatment in DM",SDTMIG,3.2,"{""Classes"":{""Include"":[""SPECIAL PURPOSE""]},""Domains"":{""Include"":[""DM""]}}",Fully Executable,Published,['SDTMIG'],"['CG0117', 'CG0118']","['CG0117', 'CG0118']"
CORE-000367,CG0118,"CG0117, CG0118","ACTARM is not in TA.ARM, but ACTARM in DM does not equal Screen Failure, Not Assigned, Not Treated, or Unplanned Treatment.","Raise an error when no TA.ARM exists for ACTARM in DM and ACTARM does not equal Screen Failure, Not Assigned, Not Treated, or Unplanned Treatment in DM",SDTMIG,3.2,"{""Classes"":{""Include"":[""SPECIAL PURPOSE""]},""Domains"":{""Include"":[""DM""]}}",Fully Executable,Published,['SDTMIG'],"['CG0117', 'CG0118']","['CG0117', 'CG0118']"
CORE-000530,CG0119,CG0119,ACTARM should be equal to ARM when ACTARM is Screen Failure or Not Assigned.,"Raise an error when ACTARM is Screen Failure or Not Assigned, and ACTARM does not equal ARM",SDTMIG,3.2,"{""Classes"":{""Include"":[""SPECIAL PURPOSE""]},""Domains"":{""Include"":[""DM""]}}",Fully Executable,Published,['SDTMIG'],['CG0119'],['CG0119']
CORE-000368,CG0120,"CG0120, CG0121","ARM is not in TA.ARM, but ARM in DM does not equal Screen Failure or Not Assigned.","ARM values in Demographics are restricted to ARM values in Trial Arms when not equal to ""Screen Failure"" or ""Not Assigned""",SDTMIG,3.2,"{""Classes"":{""Include"":[""SPECIAL PURPOSE""]},""Domains"":{""Include"":[""DM""]}}",Fully Executable,Published,['SDTMIG'],"['CG0120', 'CG0121']","['CG0120', 'CG0121']"
CORE-000368,CG0121,"CG0120, CG0121","ARM is not in TA.ARM, but ARM in DM does not equal Screen Failure or Not Assigned.","ARM values in Demographics are restricted to ARM values in Trial Arms when not equal to ""Screen Failure"" or ""Not Assigned""",SDTMIG,3.2,"{""Classes"":{""Include"":[""SPECIAL PURPOSE""]},""Domains"":{""Include"":[""DM""]}}",Fully Executable,Published,['SDTMIG'],"['CG0120', 'CG0121']","['CG0120', 'CG0121']"
CORE-000330,CG0122,CG0122,ARM should be equal to ACTARM when ARM is Screen Failure or Not Assigned.,"ACTARM value must match ARM value in Demographics when ARM equals ""Screen Failure"" or ""Not Assigned""",SDTMIG,3.2,"{""Classes"":{""Include"":[""SPECIAL PURPOSE""]},""Domains"":{""Include"":[""DM""]}}",Fully Executable,Published,['SDTMIG'],['CG0122'],['CG0122']
CORE-000185,CG0123,"CG0123, TIG0380",Length of ACTARMCD is greater than 20 characters,Trigger error if length of ACTARMCD is greater than 20 characters,"SDTMIG, TIG","3.4, 3.2, 3.3, 1.0","{""Classes"":{""Include"":[""SPECIAL PURPOSE""]},""Domains"":{""Include"":[""DM""]},""Use_Case"":""INDH""}",Fully Executable,Published,"['SDTMIG', 'TIG']","['CG0123', 'TIG0380']",['CG0123']
CORE-000331,CG0124,"CG0124, CG0125","DM.ACTARMCD must equal SCRNFAIL, NOTASSGN, NOTTRT, or UNPLAN if the value is not present in TA.ARMCD","ACTARMCD values in Demographics are restricted to ARMCD values in Trial Arms when ACTARMCD is not equal to ""SCRNFAIL"", ""NOTASSGN"", ""NOTTRT"", or ""UNPLAN""",SDTMIG,3.2,"{""Classes"":{""Include"":[""SPECIAL PURPOSE""]},""Domains"":{""Include"":[""DM""]}}",Fully Executable,Published,['SDTMIG'],"['CG0124', 'CG0125']","['CG0124', 'CG0125']"
CORE-000331,CG0125,"CG0124, CG0125","DM.ACTARMCD must equal SCRNFAIL, NOTASSGN, NOTTRT, or UNPLAN if the value is not present in TA.ARMCD","ACTARMCD values in Demographics are restricted to ARMCD values in Trial Arms when ACTARMCD is not equal to ""SCRNFAIL"", ""NOTASSGN"", ""NOTTRT"", or ""UNPLAN""",SDTMIG,3.2,"{""Classes"":{""Include"":[""SPECIAL PURPOSE""]},""Domains"":{""Include"":[""DM""]}}",Fully Executable,Published,['SDTMIG'],"['CG0124', 'CG0125']","['CG0124', 'CG0125']"
CORE-000531,CG0126,"CG0126, CG0128",DM.ARMCD must equal SCRNFAIL or NOTASSGN if the value is not present in TA.ARMCD,"ARMCD values in Demographics are restricted to ARMCD values in  Trial Arms when DM.ARMCD is not equal to ""SCRNFAIL"" or ""NOTASSGN""",SDTMIG,3.2,"{""Classes"":{""Include"":[""SPECIAL PURPOSE""]},""Domains"":{""Include"":[""DM""]}}",Fully Executable,Published,['SDTMIG'],"['CG0126', 'CG0128']","['CG0126', 'CG0128']"
CORE-000543,CG0127,CG0127,ARMCD does not equal ACTARMCD when subject is either a screen failure or not assigned to treatment,"Raise an error when ACTARMCD equals ""SCRFNFAIL"" or ""NOTASSGN"" but ARMCD doesn't equal ACTARMCD.",SDTMIG,3.2,"{""Classes"":{""Include"":[""SPECIAL PURPOSE""]},""Domains"":{""Include"":[""DM""]}}",Fully Executable,Published,['SDTMIG'],['CG0127'],['CG0127']
CORE-000531,CG0128,"CG0126, CG0128",DM.ARMCD must equal SCRNFAIL or NOTASSGN if the value is not present in TA.ARMCD,"ARMCD values in Demographics are restricted to ARMCD values in  Trial Arms when DM.ARMCD is not equal to ""SCRNFAIL"" or ""NOTASSGN""",SDTMIG,3.2,"{""Classes"":{""Include"":[""SPECIAL PURPOSE""]},""Domains"":{""Include"":[""DM""]}}",Fully Executable,Published,['SDTMIG'],"['CG0126', 'CG0128']","['CG0126', 'CG0128']"
CORE-000377,CG0129,CG0129,DM.ARMCD must equal DM.ACTARMCD when subject is either a screen failure or not assigned to treatment,"ARMCD value must match ACTARMCD value in Demographics when ARMCD equals ""SCRFNFAIL"" or ""NOTASSGN""",SDTMIG,3.2,"{""Classes"":{""Include"":[""SPECIAL PURPOSE""]},""Domains"":{""Include"":[""DM""]}}",Fully Executable,Published,['SDTMIG'],['CG0129'],['CG0129']
CORE-000006,CG0131,"CG0131, TIG0381","DTHFL is not ""Y"" or null","Raise an error when DTHFL ^= ""Y"" and not null","SDTMIG, TIG","3.4, 3.2, 3.3, 1.0","{""Classes"":{""Include"":[""SPECIAL PURPOSE""]},""Domains"":{""Include"":[""DM""]},""Use_Case"":""INDH""}",Fully Executable,Published,"['SDTMIG', 'TIG']","['CG0131', 'TIG0381']",['CG0131']
CORE-000008,CG0132,"CG0132, FB0601","DTHFL is not ""Y"", when SS.SSSTRESC equals ""DEAD""","When survival status is marked as Dead in SS dataset, death flag is populated as Y in DM dataset",SDTMIG,"3.2, 3.3, 3.4","{""Classes"":{""Include"":[""SPECIAL PURPOSE""]},""Domains"":{""Include"":[""DM""]}}",Fully Executable,Draft,['SDTMIG'],"['CG0132', 'FB0601']","['CG0132', 'FB0601']"
CORE-000108,CG0133,"CG0133, TIG0382, FB0602","DD record present for subject, but DTHFL is not equal to ""Y"".","When a record is present in DD domain for a subject, death flag is populated as Y in DM dataset for corresponding subject","SDTMIG, TIG","3.4, 3.2, 3.3, 1.0","{""Classes"":{""Include"":[""SPECIAL PURPOSE""]},""Domains"":{""Include"":[""DM""]},""Use_Case"":""INDH""}",Fully Executable,Published,"['SDTMIG', 'TIG']","['CG0133', 'TIG0382', 'FB0602']","['CG0133', 'FB0602']"
CORE-000254,CG0134,"CG0134, TIG0383, FB0603",DTHFL is not 'Y' when AE.AEOUT is 'FATAL'.,"When AE.AEOUT is 'FATAL', DTHFL must be 'Y'","SDTMIG, TIG","3.4, 3.2, 3.3, 1.0","{""Classes"":{""Include"":[""SPECIAL PURPOSE""]},""Domains"":{""Include"":[""DM""]},""Use_Case"":""INDH""}",Fully Executable,Published,"['SDTMIG', 'TIG']","['CG0134', 'TIG0383', 'FB0603']","['CG0134', 'FB0603']"
CORE-000253,CG0135,"CG0135, TIG0384, FB0604",DTHFL is not 'Y' when AE.AESDTH is 'Y'.,"When AE.AESDTH is 'Y', DTHFL must be 'Y'","SDTMIG, TIG","3.4, 3.2, 3.3, 1.0","{""Classes"":{""Include"":[""SPECIAL PURPOSE""]},""Domains"":{""Include"":[""DM""]},""Use_Case"":""INDH""}",Fully Executable,Published,"['SDTMIG', 'TIG']","['CG0135', 'TIG0384', 'FB0604']","['CG0135', 'FB0604']"
CORE-000252,CG0136,"CG0136, TIG0385, FB0605","DTHFL is not 'Y' when DS.DSDECOD is ""DEATH""","When DS.DSDECOD is 'DEATH', DTHFL must be 'Y'","SDTMIG, TIG","3.4, 3.2, 3.3, 1.0","{""Classes"":{""Include"":[""SPECIAL PURPOSE""]},""Domains"":{""Include"":[""DM""]},""Use_Case"":""INDH""}",Fully Executable,Published,"['SDTMIG', 'TIG']","['CG0136', 'TIG0385', 'FB0605']","['CG0136', 'FB0605']"
CORE-000533,CG0138,CG0138,A SUPP domain other than SUPPDM contains population flags (name fragments reserved),,SDTMIG,3.2,"{""Classes"":{""Include"":[""RELATIONSHIP""]},""Domains"":{""Exclude"":[""SUPPDM""]}}",Fully Executable,Published,['SDTMIG'],['CG0138'],['CG0138']
CORE-000337,CG0140,"CG0140, TIG0386","Multiple races are collected in SUPPDM but RACE in DM does not equal ""MULTIPLE"".","Raise an error when multiple races are collected in SUPPDM but RACE in DM does not equal ""MULTIPLE"".","SDTMIG, TIG","3.2, 3.3, 3.4, 1.0","{""Classes"":{""Include"":[""ALL""]},""Domains"":{""Include"":[""SUPPDM""]},""Use_Case"":""INDH""}",Fully Executable,Published,"['SDTMIG', 'TIG']","['CG0140', 'TIG0386']",['CG0140']
CORE-000369,CG0141,CG0141,"RFENDTC must be null when ACTARM in (Screen Failure, Not Assigned, Not Treated).","Raise an error when RFENDTC is not null, but ACTARM is Screen Failure, Not Assigned, or Not Treated",SDTMIG,3.2,"{""Classes"":{""Include"":[""SPECIAL PURPOSE""]},""Domains"":{""Include"":[""DM""]}}",Fully Executable,Published,['SDTMIG'],['CG0141'],['CG0141']
CORE-000378,CG0142,CG0142,"RFENDTC must not be null when ACTARM is a value other than Screen Failure, Not Assigned, or Not Treated.","Raise an error when RFENDTC is null, but ACTARM is not Screen Failure, Not Assigned, or Not Treated",SDTMIG,3.2,"{""Classes"":{""Include"":[""SPECIAL PURPOSE""]},""Domains"":{""Include"":[""DM""]}}",Fully Executable,Published,['SDTMIG'],['CG0142'],['CG0142']
CORE-000370,CG0143,"CG0143, TIG0387","DM.RFICDTC is not equal to the earliest DSSTDTC, when DSTERM indicates Informed consent obtained.",DM.RFICDTC must equal the earliest DS.DSSTDTC when DSTERM indicates informed consent obtained.,"SDTMIG, TIG","3.4, 3.2, 3.3, 1.0","{""Classes"":{""Include"":[""EVENTS""]},""Domains"":{""Include"":[""DS""]},""Use_Case"":""INDH""}",Fully Executable,Published,"['SDTMIG', 'TIG']","['CG0143', 'TIG0387']",['CG0143']
CORE-000379,CG0145,CG0145,"RFSTDTC must be null when ACTARM in (Screen failure, Not Assigned, Not Treated).","Raise an error when RFSTDTC is not null, but ACTARM is either Screen Failure, Not Assigned, or Not Treated",SDTMIG,3.2,"{""Classes"":{""Include"":[""SPECIAL PURPOSE""]},""Domains"":{""Include"":[""DM""]}}",Partially Executable,Published,['SDTMIG'],['CG0145'],['CG0145']
CORE-000380,CG0146,CG0146,"RFSTDTC must not be null when ACTARM is not in (Screen Failure, Not Assigned, Not Treated.","Raise an error when RFSTDTC is null, but ACTARM is neither Screen Failure, Not Assigned, nor Not Treated",SDTMIG,3.2,"{""Classes"":{""Include"":[""SPECIAL PURPOSE""]},""Domains"":{""Include"":[""DM""]}}",Fully Executable,Published,['SDTMIG'],['CG0146'],['CG0146']
CORE-000238,CG0147,"CG0147, TIG0388",RFXENDTC does not equal the latest value of EX.EXSTDTC or EX.EXENDTC,Raise an error when EX records are present for subject but RFXENDTC does not equal the latest value of EX.EXSTDTC or EX.EXENDTC,"SDTMIG, TIG","3.4, 3.3, 3.2, 1.0","{""Classes"":{""Include"":[""SPECIAL PURPOSE""]},""Domains"":{""Include"":[""DM""]},""Use_Case"":""INDH""}",Fully Executable,Published,"['SDTMIG', 'TIG']","['CG0147', 'TIG0388']",['CG0147']
CORE-000239,CG0148,"CG0148, TIG0389",RFXSTDTC does not equal the earliest value of EX.EXSTDTC,Raise an error when EX records are present for subject but RFXSTDTC does not equal the earliest value of EX.EXSTDTC,"SDTMIG, TIG","3.4, 3.3, 3.2, 1.0","{""Classes"":{""Include"":[""SPECIAL PURPOSE""]},""Domains"":{""Include"":[""DM""]},""Use_Case"":""INDH""}",Fully Executable,Published,"['SDTMIG', 'TIG']","['CG0148', 'TIG0389']",['CG0148']
CORE-000088,CG0149,"CG0149, SEND25, TIG0169, TIG0390",SETCD value length is greater than 8,Verify that the length of value in SETCD variable is <= 8,"SDTMIG, SENDIG, SENDIG-DART, SENDIG-GENETOX, TIG","3.4, 3.2, 3.3, 3.0, 3.1, 3.1.1, 1.1, 1.2, 1.0","{""Classes"":{""Include"":[""SPECIAL PURPOSE"",""TRIAL DESIGN""]},""Domains"":{""Include"":[""DM"",""TX""]},""Use_Case"":""INDH, NONCLIN""}",Fully Executable,Published,"['SDTMIG', 'SENDIG', 'SENDIG-DART', 'SENDIG-GENETOX', 'TIG']","['CG0149', 'SEND25', 'TIG0169', 'TIG0390']",['CG0149']
CORE-000186,CG0150,"CG0150, TIG0391",SUBJID is not unique within study,Trigger error if SUBJID is not unique,"SDTMIG, TIG","3.4, 3.2, 3.3, 1.0","{""Classes"":{""Include"":[""SPECIAL PURPOSE""]},""Domains"":{""Include"":[""DM""]},""Use_Case"":""INDH""}",Fully Executable,Published,"['SDTMIG', 'TIG']","['CG0150', 'TIG0391']",['CG0150']
CORE-000351,CG0151,"CG0151, TIG0392, SEND37, TIG0255",USUBJID is not unique within study,USUBJID must be unique across all studies,"SDTMIG, TIG, SENDIG, SENDIG-DART, SENDIG-GENETOX","3.4, 3.2, 3.3, 1.0, 3.0, 3.1, 3.1.1, 1.1, 1.2","{""Classes"":{""Include"":[""SPECIAL PURPOSE""]},""Domains"":{""Include"":[""DM""]},""Use_Case"":""NONCLIN, INDH""}",Partially Executable,Published,"['SDTMIG', 'TIG', 'SENDIG', 'SENDIG-DART', 'SENDIG-GENETOX']","['CG0151', 'TIG0392', 'SEND37', 'TIG0255']",['CG0151']
CORE-000009,CG0152,"CG0152, SEND124.1, TIG0393, TIG0061",ELEMENT variable has a non-null value when ETCD has a value of 'UNPLAN',Verify that ELEMENT value is blank when ETCD is equal to UNPLAN,"SDTMIG, SENDIG, SENDIG-DART, SENDIG-GENETOX, TIG","3.4, 3.2, 3.3, 3.0, 3.1, 3.1.1, 1.1, 1.2, 1.0","{""Classes"":{""Include"":[""SPECIAL PURPOSE""]},""Domains"":{""Include"":[""SE""]},""Use_Case"":""INDH, NONCLIN""}",Fully Executable,Published,"['SDTMIG', 'SENDIG', 'SENDIG-DART', 'SENDIG-GENETOX', 'TIG']","['CG0152', 'SEND124.1', 'TIG0393', 'TIG0061']",['CG0152']
CORE-000010,CG0153,"CG0153, TIG0394",ARMCD value length is greater than 20,Verify ARMCD value length is <= 20,"SDTMIG, TIG","3.4, 3.2, 3.3, 1.0","{""Classes"":{""Include"":[""SPECIAL PURPOSE"",""TRIAL DESIGN""]},""Domains"":{""Include"":[""DM"",""TA""]},""Use_Case"":""INDH""}",Fully Executable,Published,"['SDTMIG', 'TIG']","['CG0153', 'TIG0394']",['CG0153']
CORE-000132,CG0154,"CG0154, SEND213, FB0914",ELEMENT and ETCD do not have a one-to-one relationship.,"When ETCD and ELEMENTCD are present, ETCD and  ELEMENT should have a one-to-one relationship.","SDTMIG, SENDIG, SENDIG-DART, SENDIG-GENETOX, SENDIG-AR","3.4, 3.2, 3.3, 3.0, 3.1, 3.1.1, 1.1, 1.2, 1.0","{""Classes"":{""Include"":[""TRIAL DESIGN""]},""Domains"":{""Include"":[""TE"",""TA"",""SE""]}}",Fully Executable,Published,"['SDTMIG', 'SENDIG', 'SENDIG-DART', 'SENDIG-GENETOX', 'SENDIG-AR']","['CG0154', 'SEND213', 'FB0914']","['CG0154', 'FB0914']"
CDISC.SDTMIG.CG0155,CG0155,CG0155,AP Core Domain should start with 'AP' and length should be equal to 4.,Raise error if domain name begins with AP and length of domain variable is not 4,SDTMIG,"3.2, 3.3","{""Classes"":{""Include"":[""ALL""]},""Domains"":{""Exclude"":[""APRELSUB"",""POOLDEF"",""FA""],""Include"":[""AP--""]}}",Fully Executable,Draft,['SDTMIG'],['CG0155'],['CG0155']
CDISC.SDTMIG.CG0156,CG0156,CG0156,,,SDTMIG,"3.2, 3.3, 3.4","{""Classes"":{""Include"":[""ALL""]},""Domains"":{""Include"":[""AP--""]}}",Fully Executable,Draft,['SDTMIG'],['CG0156'],['CG0156']
CDISC.SDTMIG.CG0157,CG0157,CG0157,RSUBJID is not in DM.USUBJID.,Raise an error when RSUBJID in not in DM.USUBJID,SDTMIG,"3.4, 3.2, 3.3","{""Classes"":{""Include"":[""SPECIAL PURPOSE""]},""Domains"":{""Include"":[""AP"",""DM""]}}",Fully Executable,Draft,['SDTMIG'],['CG0157'],['CG0157']
CDISC.SDTMIG.CG0158,CG0158,CG0158,RSUBJID is not in POOLDEF.POOLID,Trigger error if relationship described is to a pool and RSUBJID is not in POOLDEF.POOLID,SDTMIG,"3.4, 3.2, 3.3","{""Classes"":{""Include"":[""ASSOCIATE PERSONS""]},""Domains"":{""Include"":[""ALL""]}}",Fully Executable,Draft,['SDTMIG'],['CG0158'],['CG0158']
CDISC.SDTMIG.CG0159,CG0159,CG0159,Relationship described is to a study (but not to individua study subject) and RSUBJID is not null,Trigger error if relationship described is to a study (but not to individual study subject) and RSUBJID is not null,SDTMIG,"3.4, 3.2, 3.3","{""Classes"":{""Include"":[""ASSOCIATED PERSONS""]},""Domains"":{""Include"":[""ALL""]}}",Fully Executable,Draft,['SDTMIG'],['CG0159'],['CG0159']
CDISC.SDTMIG.CG0160,CG0160,CG0160,SREL does not describe the relationship of associated person to study subject or pool when RSUBJID is not null,Trigger error when RSUBJID ^= null and SREL does not describe the relationship of associated person to study subject or pool,SDTMIG,"3.4, 3.2, 3.3","{""Classes"":{""Include"":[""ASSOCIATED PERSONS""]},""Domains"":{""Include"":[""ALL""]}}",Fully Executable,Draft,['SDTMIG'],['CG0160'],['CG0160']
CDISC.SDTMIG.CG0161,CG0161,CG0161,SREL does not describe relationship of associated person to device identified in RDEVID when RDEVID ^= null,Trigger error when RDEVID ^= null and SREL does not describe relationship of associated person to device identified in RDEVID,SDTMIG,"3.4, 3.2, 3.3","{""Classes"":{""Include"":[""ASSOCIATED PERSONS""]},""Domains"":{""Include"":[""ALL""]}}",Fully Executable,Draft,['SDTMIG'],['CG0161'],['CG0161']
CDISC.SDTMIG.CG0162,CG0162,CG0162,SREL does not describe the relationship of associated person to study identified in STUDYID when RSUBJID = null and RDEVID = null,Trigger error when RSUBJID = null and RDEVID = null and SREL does not describe the relationship of associated person to study identified in STUDYID,SDTMIG,"3.4, 3.2, 3.3","{""Classes"":{""Include"":[""ASSOCIATED PERSONS""]},""Domains"":{""Include"":[""ALL""]}}",Not Executable,Draft,['SDTMIG'],['CG0162'],['CG0162']
CORE-000158,CG0163,"CG0163, TIG0396","IDVAR should not be missing when RDOMAIN is not in (empty, DM).",IDVAR must be specified.,"SDTMIG, TIG","3.4, 3.2, 3.3, 1.0","{""Classes"":{""Include"":[""SPECIAL PURPOSE""]},""Domains"":{""Include"":[""CO""]},""Use_Case"":""INDH""}",Fully Executable,Published,"['SDTMIG', 'TIG']","['CG0163', 'TIG0396']",['CG0163']
CORE-000090,CG0164,"CG0164, TIG0397",RDOMAIN has a missing value but IDVAR has a non-missing value,Verify IDVAR is null when RDOMAIN is null,"SDTMIG, TIG","3.4, 3.2, 3.3, 1.0","{""Classes"":{""Include"":[""SPECIAL PURPOSE""]},""Domains"":{""Include"":[""CO""]},""Use_Case"":""INDH""}",Fully Executable,Published,"['SDTMIG', 'TIG']","['CG0164', 'TIG0397']",['CG0164']
CORE-000017,CG0166,"CG0166, TIG0398",RDOMAIN has a missing value when IDVARVAL has a non-missing value.,Raise an error when RDOMAIN is null when IDVARVAL is not null.,"SDTMIG, TIG","3.4, 3.2, 3.3, 1.0","{""Classes"":{""Include"":[""SPECIAL PURPOSE""]},""Domains"":{""Include"":[""CO""]},""Use_Case"":""INDH""}",Fully Executable,Published,"['SDTMIG', 'TIG']","['CG0166', 'TIG0398']",['CG0166']
CDISC.SDTMIG.CG0167,CG0167,CG0167,"Comments are not unsolicited, free-text and voluntary","Trigger error when comments are not unsolicited, free-text and voluntary",SDTMIG,"3.4, 3.2, 3.3","{""Classes"":{""Include"":[""SPECIAL PURPOSE""]},""Domains"":{""Include"":[""CO""]}}",Fully Executable,Draft,['SDTMIG'],['CG0167'],['CG0167']
CORE-000187,CG0168,"CG0168, TIG0400",CODTC is populated when IDVAR is also populated,Trigger error when IDVAR is not null and CODTC is not null,"SDTMIG, TIG","3.4, 3.2, 3.3, 1.0","{""Classes"":{""Include"":[""SPECIAL PURPOSE""]},""Domains"":{""Include"":[""CO""]},""Use_Case"":""INDH""}",Fully Executable,Published,"['SDTMIG', 'TIG']","['CG0168', 'TIG0400']",['CG0168']
CDISC.SDTMIG.CG0169,CG0169,CG0169,COVALn is present in dataset when no comments are greater than 200 characters,Trigger error when there are no comments greater than 200 characters and COVALn is present,SDTMIG,"3.4, 3.2, 3.3","{""Classes"":{""Include"":[""SPECIAL PURPOSE""]},""Domains"":{""Include"":[""CO""]}}",Fully Executable,Draft,['SDTMIG'],['CG0169'],['CG0169']
CORE-000259,CG0171,"CG0171, FB0613","Date time of collection of subject status in SS domain, where survival status is marked as DEAD, is not on or after the date time of death populated in DM domain.","Date time of collection of subject status in SS domain, where survival status is marked as DEAD, is on or after the date time of death populated in DM domain",SDTMIG,"3.4, 3.3, 3.2","{""Classes"":{""Include"":[""FINDINGS""]},""Domains"":{""Include"":[""SS""]}}",Fully Executable,Published,['SDTMIG'],"['CG0171', 'FB0613']","['CG0171', 'FB0613']"
CORE-000178,CG0172,CG0172,"SSSTRESC = 'DEAD', but SSDTC < max DS.DSSTDTC.",Raise an error when SSSTRESC = 'DEAD' and SSDTC < max DS.DSSTDTC.,SDTMIG,"3.4, 3.3, 3.2","{""Classes"":{""Include"":[""FINDINGS""]},""Domains"":{""Include"":[""SS""]}}",Fully Executable,Published,['SDTMIG'],['CG0172'],['CG0172']
CDISC.SDTMIG.CG0173,CG0173,CG0173,"Collected data fits a Qualifier variable listed in SDTM Sections 2.2.1, 2.2.2, or 2.2.3, and are represented in the Findings About domain, and the name of the variable is used as FATESTCD","Trigger error when collected data fits a Qualifier variable listed in SDTM Sections 2.2.1, 2.2.2, or 2.2.3, and are represented in the Findings About domain, and the name of the variable is used as FATESTCD",SDTMIG,"3.4, 3.2, 3.3","{""Classes"":{""Include"":[""ALL""]},""Domains"":{""Include"":[""ALL""]}}",Partially Executable - Possible Underreporting,Draft,['SDTMIG'],['CG0173'],['CG0173']
CORE-000744,CG0174,"CG0174, TIG0403","Related record is present in the parent domain dataset but FAOBJ is not equal to the ""TERM"", ""TRT"" or ""DECOD"" of the parent domain.","Raise an error when a related record is present in the parent domain dataset but FAOBJ is not equal to the --TERM, --TRT or --DECOD of the parent domain.","SDTMIG, TIG","3.4, 3.3, 3.2, 1.0","{""Classes"":{""Include"":[""FINDINGS ABOUT""]},""Domains"":{""Include"":[""FA""]},""Use_Case"":""INDH""}",Fully Executable,Published,"['SDTMIG', 'TIG']","['CG0174', 'TIG0403']",['CG0174']
CORE-000011,CG0175,"CG0175, TIG0404",IEORRES is not equal to 'Y' when IECAT equals 'EXCLUSION'.,Raise an error when IECAT is equal to 'EXCLUSION' and IEORRES is not equal to 'Y'.,"SDTMIG, TIG","3.4, 3.2, 3.3, 1.0","{""Classes"":{""Include"":[""FINDINGS""]},""Domains"":{""Include"":[""IE""]},""Use_Case"":""INDH""}",Fully Executable,Published,"['SDTMIG', 'TIG']","['CG0175', 'TIG0404']",['CG0175']
CORE-000001,CG0176,"CG0176, TIG0405",IEORRES is not equal to 'N' when IECAT equals 'INCLUSION'.,Raise an error when IECAT is equal to 'INCLUSION' and IEORRES is not equal to 'N'.,"SDTMIG, TIG","3.4, 3.2, 3.3, 1.0","{""Classes"":{""Include"":[""FINDINGS""]},""Domains"":{""Include"":[""IE""]},""Use_Case"":""INDH""}",Fully Executable,Published,"['SDTMIG', 'TIG']","['CG0176', 'TIG0405']",['CG0176']
CORE-000025,CG0177,"CG0177, TIG0406",IESTRESC is not equal to IEORRES,IESTRESC is not equal to IEORRES,"SDTMIG, TIG","3.4, 3.2, 3.3, 1.0","{""Classes"":{""Include"":[""FINDINGS""]},""Domains"":{""Include"":[""IE""]},""Use_Case"":""INDH""}",Fully Executable,Published,"['SDTMIG', 'TIG']","['CG0177', 'TIG0406']",['CG0177']
CORE-000227,CG0178,"CG0178, TIG0407",IETEST is not in TI.IETEST,Check if IETEST is not in TI.IETEST,"SDTMIG, TIG","3.4, 3.2, 3.3, 1.0","{""Classes"":{""Include"":[""FINDINGS""]},""Domains"":{""Include"":[""IE""]},""Use_Case"":""INDH""}",Fully Executable,Published,"['SDTMIG', 'TIG']","['CG0178', 'TIG0407']",['CG0178']
CORE-000228,CG0179,"CG0179, TIG0408",IETESTCD from IE domain does not exist in IETESTCD of TI domain.,Check if IETESTCD is present in TI.IETESTCD,"SDTMIG, TIG","3.4, 3.2, 3.3, 1.0","{""Classes"":{""Include"":[""FINDINGS""]},""Domains"":{""Include"":[""IE""]},""Use_Case"":""INDH""}",Fully Executable,Published,"['SDTMIG', 'TIG']","['CG0179', 'TIG0408']",['CG0179']
CORE-000290,CG0180,"CG0180, TIG0409",LBORRES is not a continuous measurement but LBORNRLO is not empty.,Raise an error when LBORRES ^= continuous measurement and LBORNRLO is not empty. The interpretation of the guidance is that LBORRES is populated (not null).,"SDTMIG, TIG","3.4, 3.2, 3.3, 1.0","{""Classes"":{""Include"":[""FINDINGS""]},""Domains"":{""Include"":[""LB""]},""Use_Case"":""INDH""}",Fully Executable,Published,"['SDTMIG', 'TIG']","['CG0180', 'TIG0409']",['CG0180']
CORE-000289,CG0181,"CG0181, TIG0410",LBORRES is not a continuous measurement but LBORNRHI is not empty.,Raise an error when LBORRES is not a continuous measurement and LBORNRHI is not empty. The interpretation of the guidance is that LBORRES is populated (not null).,"SDTMIG, TIG","3.4, 3.2, 3.3, 1.0","{""Classes"":{""Include"":[""FINDINGS""]},""Domains"":{""Include"":[""LB""]},""Use_Case"":""INDH""}",Fully Executable,Published,"['SDTMIG', 'TIG']","['CG0181', 'TIG0410']",['CG0181']
CORE-000298,CG0182,"CG0182, TIG0411",LBORRES is not a continuous measurment but LBSTNRLO is not empty.,Raise an error when LBORRES is not a continuous measurement and LBSTNRLO is not empty. The interpretation of the guidance is that LBORRES is populated (not null).,"SDTMIG, TIG","3.4, 3.2, 3.3, 1.0","{""Classes"":{""Include"":[""FINDINGS""]},""Domains"":{""Include"":[""LB""]},""Use_Case"":""INDH""}",Fully Executable,Published,"['SDTMIG', 'TIG']","['CG0182', 'TIG0411']",['CG0182']
CORE-000299,CG0183,"CG0183, TIG0412",LBORRES is not a continuous measurement but LBSTNRHI is not empty.,Raise an error when LBORRES is not a continuous measurement and LBSTNRHI is not empty. The interpretation of the guidance is that LBORRES is populated (not null).,"SDTMIG, TIG","3.4, 3.2, 3.3, 1.0","{""Classes"":{""Include"":[""FINDINGS""]},""Domains"":{""Include"":[""LB""]},""Use_Case"":""INDH""}",Fully Executable,Published,"['SDTMIG', 'TIG']","['CG0183', 'TIG0412']",['CG0183']
CDISC.SDTMIG.CG0184,CG0184,CG0184,LBSTNRC is populated when LBORRES is a continuous measurement,"When LBORRES is a continuous measurement, LBSTNRC should be null",SDTMIG,"3.4, 3.2, 3.3","{""Classes"":{""Include"":[""FINDINGS""]},""Domains"":{""Include"":[""LB""]}}",Fully Executable,Draft,['SDTMIG'],['CG0184'],['CG0184']
CORE-000169,CG0185,"CG0185, TIG0414",Verify that LBTOXGR value is not from a numeric scale,Raise a warning when LBTOXGR is not numeric,"SDTMIG, TIG","3.4, 3.2, 3.3, 1.0","{""Classes"":{""Include"":[""FINDINGS""]},""Domains"":{""Include"":[""LB""]},""Use_Case"":""INDH""}",Fully Executable,Published,"['SDTMIG', 'TIG']","['CG0185', 'TIG0414']",['CG0185']
CDISC.SDTMIG.CG0186,CG0186,CG0186,LBORNRLO is not expressed using the units in LBORRESU,LBORNRLO is expressed using the units in LBORRESU,SDTMIG,"3.4, 3.2, 3.3","{""Classes"":{""Include"":[""FINDINGS""]},""Domains"":{""Include"":[""LB""]}}",Fully Executable,Draft,['SDTMIG'],['CG0186'],['CG0186']
CDISC.SDTMIG.CG0187,CG0187,CG0187,,,SDTMIG,"3.2, 3.3, 3.4","{""Classes"":{""Include"":[""FINDINGS""]},""Domains"":{""Include"":[""LB""]}}",Fully Executable,Draft,['SDTMIG'],['CG0187'],['CG0187']
CDISC.SDTMIG.CG0188,CG0188,CG0188,LBORNRLO is not expressed using the units in LBSTRESU,Trigger error if LBORNRLO is not expressed using the units in LBSTRESU,SDTMIG,"3.4, 3.2, 3.3","{""Classes"":{""Include"":[""FINDINGS""]},""Domains"":{""Include"":[""LB""]}}",Fully Executable,Draft,['SDTMIG'],['CG0188'],['CG0188']
CDISC.SDTMIG.CG0189,CG0189,CG0189,LBSTNRHI is not expressed using the units in LBSTRESU,Trigger error if LBSTNRHI is not expressed using the units in LBSTRESU,SDTMIG,"3.4, 3.2, 3.3","{""Classes"":{""Include"":[""FINDINGS""]},""Domains"":{""Include"":[""LB""]}}",Fully Executable,Draft,['SDTMIG'],['CG0189'],['CG0189']
CDISC.SDTMIG.CG0190,CG0190,CG0190,LBSTNRC is not expressed using the units in LBSTRESU when LBSTRESU is populated.,Trigger error if LBSTRESU is not null and LBSTNRC is not expressed using the units in LBSTRESU,SDTMIG,"3.4, 3.2, 3.3","{""Classes"":{""Include"":[""FINDINGS""]},""Domains"":{""Include"":[""LB""]}}",Fully Executable,Draft,['SDTMIG'],['CG0190'],['CG0190']
CORE-000188,CG0191,CG0191,The MB dataset is not present when the MS dataset is present.,Trigger error if MS dataset is present and MB dataset is not present.,SDTMIG,"3.4, 3.2, 3.3","{""Classes"":{""Include"":[""FINDINGS""]},""Domains"":{""Include"":[""MS""]}}",Fully Executable,Published,['SDTMIG'],['CG0191'],['CG0191']
CDISC.SDTMIG.CG0192,CG0192,CG0192,,,SDTMIG,3.2,"{""Classes"":{""Include"":[""FINDINGS""]},""Domains"":{""Include"":[""MB""]}}",Fully Executable,Draft,['SDTMIG'],['CG0192'],['CG0192']
CORE-000332,CG0193,CG0193,"MBRESCAT is expected when MBTESTCD='ORGANISM', MSSTRESC!='NO GROWTH', MBMETHOD!='GRAM STAIN'","Raise an error when MBTESTCD=ORGANISM, MSSTRESC!='NO GROWTH', MBMETHOD!='GRAM STAIN' and MBRESCAT is empty",SDTMIG,3.2,"{""Classes"":{""Include"":[""FINDINGS""]},""Domains"":{""Include"":[""MB""]}}",Fully Executable,Published,['SDTMIG'],['CG0193'],['CG0193']
CDISC.SDTMIG.CG0196,CG0196,CG0196,,,SDTMIG,"3.2, 3.3, 3.4","{""Classes"":{""Include"":[""FINDINGS""]},""Domains"":{""Include"":[""PE""]}}",Fully Executable,Draft,['SDTMIG'],['CG0196'],['CG0196']
CDISC.SDTMIG.CG0197,CG0197,CG0197,PESTRESC does not equal PEORRES OR a dictionary coded preferred term,Trigger error when PESTRESC ^= null but PESTRESC does not equal PEORRES OR a dictionary coded preferred term,SDTMIG,"3.4, 3.2, 3.3","{""Classes"":{""Include"":[""FINDINGS""]},""Domains"":{""Include"":[""PE""]}}",Fully Executable,Draft,['SDTMIG'],['CG0197'],['CG0197']
CDISC.SDTMIG.CG0198,CG0198,CG0198,Relationship represented in RELREC is not a collected relationship,Trigger error when relationship represented in RELREC is not a collected relationship,SDTMIG,"3.4, 3.2, 3.3","{""Classes"":{""Include"":[""SPECIAL PURPOSE""]},""Domains"":{""Include"":[""RELREC""]}}",Fully Executable,Draft,['SDTMIG'],['CG0198'],['CG0198']
CORE-000484,CG0200,"CG0200, TIG0421",Unique RELID is NOT present on multiple RELREC records within a subject.,"Within a subject, each unique RELID should be present on multiple RELREC records","SDTMIG, TIG","3.4, 3.2, 3.3, 1.0","{""Classes"":{""Include"":[""RELATIONSHIP""]},""Domains"":{""Include"":[""RELREC""]},""Use_Case"":""INDH, PROD""}",Fully Executable,Published,"['SDTMIG', 'TIG']","['CG0200', 'TIG0421']",['CG0200']
CORE-000136,CG0201,"CG0201, TIG0422","IDVARVAL and USUBJID are not completed, but IDVAR equals Sequence Number.",Raise an error when IDVARVAL and USUBJID are empty and IDVAR = Sequence Number.,"SDTMIG, TIG","3.4, 3.3, 3.2, 1.0","{""Classes"":{""Include"":[""RELATIONSHIP""]},""Domains"":{""Include"":[""RELREC""]},""Use_Case"":""INDH, PROD""}",Fully Executable,Published,"['SDTMIG', 'TIG']","['CG0201', 'TIG0422']",['CG0201']
CORE-000375,CG0202,CG0202,QORIG = ASSIGNED but QEVAL is not populated,Raise an error when QORIG = ASSIGNED and QEVAL is not populated.,SDTMIG,"3.2, 3.3","{""Classes"":{""Include"":[""RELATIONSHIP""]},""Domains"":{""Include"":[""SUPP--""]}}",Fully Executable,Published,['SDTMIG'],['CG0202'],['CG0202']
CORE-000134,CG0203,"CG0203, TIG0423",RDOMAIN is not 'DM' but IDVAR is empty.,Raise an error when RDOMAIN ^= 'DM' and IDVAR is empty.,"SDTMIG, TIG","3.4, 3.3, 3.2, 1.0","{""Classes"":{""Include"":[""RELATIONSHIP""]},""Domains"":{""Include"":[""SUPP--""]},""Use_Case"":""INDH, PROD""}",Fully Executable,Published,"['SDTMIG', 'TIG']","['CG0203', 'TIG0423']",['CG0203']
CORE-000135,CG0204,"CG0204, TIG0424",IDVAR is not empty but IDVARVAL is empty.,Raise an error when IDVAR is not empty and IDVARVAL is empty.,"SDTMIG, TIG","3.4, 3.3, 3.2, 1.0","{""Classes"":{""Include"":[""RELATIONSHIP""]},""Domains"":{""Include"":[""SUPP--""]},""Use_Case"":""INDH, PROD""}",Fully Executable,Published,"['SDTMIG', 'TIG']","['CG0204', 'TIG0424']",['CG0204']
CORE-000293,CG0205,"CG0205, TIG0425",Length of dataset name of SUPP-- dataset is greater than 8.,Trigger error if length of dataset name is greater than 8,"SDTMIG, TIG","3.4, 3.2, 3.3, 1.0","{""Classes"":{""Include"":[""ALL""]},""Domains"":{""Include"":[""SUPP--""]},""Use_Case"":""INDH, PROD""}",Fully Executable,Published,"['SDTMIG', 'TIG']","['CG0205', 'TIG0425']",['CG0205']
CORE-000020,CG0206,"CG0206, TIG0426",TAETORD should be null when ETCD = 'UNPLAN'.,"Raise an error when ETCD=""UNPLAN"" and TAETORD is not null.","SDTMIG, TIG","3.4, 3.2, 3.3, 1.0","{""Classes"":{""Include"":[""SPECIAL PURPOSE""]},""Domains"":{""Include"":[""SE""]},""Use_Case"":""INDH""}",Fully Executable,Published,"['SDTMIG', 'TIG']","['CG0206', 'TIG0426']",['CG0206']
CORE-000352,CG0207,"CG0207, SEND126, TIG0427",SEENDTC is not equal to SESTDTC of the next element.,Trigger error where SEENDTC is not equal to SESTDTC of the next element.,"SDTMIG, SENDIG, TIG","3.4, 3.2, 3.3, 3.0, 1.0","{""Classes"":{""Include"":[""SPECIAL PURPOSE""]},""Domains"":{""Include"":[""SE""]},""Use_Case"":""INDH""}",Fully Executable,Published,"['SDTMIG', 'SENDIG', 'TIG']","['CG0207', 'SEND126', 'TIG0427']",['CG0207']
CORE-000002,CG0208,CG0208,SESTDTC is required.,Raise an error when SESTDTC is null.,SDTMIG,"3.4, 3.2, 3.3","{""Classes"":{""Include"":[""SPECIAL PURPOSE""]},""Domains"":{""Include"":[""SE""]}}",Fully Executable,Published,['SDTMIG'],['CG0208'],['CG0208']
CORE-000527,CG0209,"CG0209, TIG0428",SEENDTC is null when element is not the last.,Trigger error where element is not the last element and SEENDTC is null.,"SDTMIG, TIG","3.4, 3.2, 3.3, 1.0","{""Classes"":{""Include"":[""SPECIAL PURPOSE""]},""Domains"":{""Include"":[""SE""]},""Use_Case"":""INDH""}",Fully Executable,Published,"['SDTMIG', 'TIG']","['CG0209', 'TIG0428']",['CG0209']
CORE-000256,CG0210,"CG0210, TIG0429, SEND125.1, TIG0062","Missing value for SEUPDES, when ETCD='UNPLAN'","Raise an error when ETCD = 'UNPLAN', SEUPDES = null","SDTMIG, TIG, SENDIG, SENDIG-DART, SENDIG-GENETOX","3.4, 3.2, 3.3, 1.0, 3.0, 3.1, 3.1.1, 1.1, 1.2","{""Classes"":{""Include"":[""SPECIAL PURPOSE""]},""Domains"":{""Include"":[""SE""]},""Use_Case"":""INDH, NONCLIN""}",Fully Executable,Published,"['SDTMIG', 'TIG', 'SENDIG', 'SENDIG-DART', 'SENDIG-GENETOX']","['CG0210', 'TIG0429', 'SEND125.1', 'TIG0062']",['CG0210']
CORE-000095,CG0211,"CG0211, TIG0430","ETCD is not 'UNPLAN', when SEUPDES is not empty","Raise an error when SEUPDES ^= null, ETCD ^= 'UNPLAN'","SDTMIG, TIG","3.4, 3.2, 3.3, 1.0","{""Classes"":{""Include"":[""SPECIAL PURPOSE""]},""Domains"":{""Include"":[""SE""]},""Use_Case"":""INDH""}",Fully Executable,Published,"['SDTMIG', 'TIG']","['CG0211', 'TIG0430']",['CG0211']
CORE-000842,CG0213,CG0213,"SVUPDES is not populated or does not exist, but the VISITNUM does not equal a VISITNUM present in TV","When SVUPDES is not populated, then the VISITNUM should be equal to a VISITNUM in TV",SDTMIG,"3.2, 3.3","{""Classes"":{""Include"":[""SPECIAL PURPOSE""]},""Domains"":{""Include"":[""SV""]}}",Partially Executable - Possible Overreporting,Published,['SDTMIG'],['CG0213'],['CG0213']
CORE-000843,CG0214,CG0214,"SVUPDES is populated, but the VISITNUM equals a VISITNUM present in TV","When SVUPDES is populated, then the VISITNUM should not be equal to a VISITNUM in TV",SDTMIG,"3.2, 3.3","{""Classes"":{""Include"":[""SPECIAL PURPOSE""]},""Domains"":{""Include"":[""SV""]}}",Fully Executable,Published,['SDTMIG'],['CG0214'],['CG0214']
CORE-000333,CG0215,CG0215,"SVUPDES is not populated or does not exist, but the VISIT does not equal a VISIT present in TV",Raise an error when SVUPDES is null and SV.VISIT is not in TV.VISIT,SDTMIG,"3.2, 3.3","{""Classes"":{""Include"":[""SPECIAL PURPOSE""]},""Domains"":{""Include"":[""SV""]}}",Partially Executable - Possible Overreporting,Published,['SDTMIG'],['CG0215'],['CG0215']
CORE-000501,CG0216,CG0216,VISITDY is populated when SVUPDES is also populated.,Raise an error if SVUPDES is not null when VISITDY is populated.,SDTMIG,"3.2, 3.3","{""Classes"":{""Include"":[""SPECIAL PURPOSE""]},""Domains"":{""Include"":[""SV""]}}",Fully Executable,Published,['SDTMIG'],['CG0216'],['CG0216']
CORE-000784,CG0217,"CG0217, TIG0431",TAETORD values don't match between Subject Visits (SV) and Subject Elements (SE) datasets.,Raise an error when variable TAETORD values don't match between Subject Visits (SV) and Subject Elements (SE) datasets.,"SDTMIG, TIG","3.4, 3.2, 3.3, 1.0","{""Classes"":{""Include"":[""SPECIAL PURPOSE""]},""Domains"":{""Include"":[""SV""]},""Use_Case"":""INDH""}",Fully Executable,Published,"['SDTMIG', 'TIG']","['CG0217', 'TIG0431']",['CG0217']
CORE-000097,CG0218,"CG0218, TIG0432",EPOCH values don't match between Subject Visits (SV) and Subject Elements (SE) datasets.,Raise an error when variable EPOCH values don't match between Subject Visits (SV) and Subject Elements (SE) datasets.,"SDTMIG, TIG","3.4, 3.2, 3.3, 1.0","{""Classes"":{""Include"":[""SPECIAL PURPOSE""]},""Domains"":{""Include"":[""SV""]},""Use_Case"":""INDH""}",Partially Executable - Possible Overreporting,Published,"['SDTMIG', 'TIG']","['CG0218', 'TIG0432']",['CG0218']
CORE-000575,CG0219,"CG0219, SEND65, TIG0266, TIG0433",No timing variable is provided,There must be at least one timing variable for any of the domains based on the three general observation classes,"SDTMIG, SENDIG, SENDIG-DART, SENDIG-GENETOX, TIG","3.4, 3.2, 3.3, 3.0, 3.1, 3.1.1, 1.1, 1.2, 1.0","{""Classes"":{""Include"":[""FINDINGS"",""INTERVENTIONS"",""EVENTS""]},""Domains"":{""Exclude"":[""IE"",""SC""]},""Use_Case"":""NONCLIN, INDH""}",Partially Executable - Possible Underreporting,Published,"['SDTMIG', 'SENDIG', 'SENDIG-DART', 'SENDIG-GENETOX', 'TIG']","['CG0219', 'SEND65', 'TIG0266', 'TIG0433']",['CG0219']
CORE-000552,CG0220,"CG0220, TIG0434",'--STDY is not properly calculated per study day algorithm,Study day must be calculated using the algorithm detailed in the SDTMIG.,"SDTMIG, TIG","3.4, 3.2, 3.3, 1.0","{""Classes"":{""Include"":[""ALL""]},""Domains"":{""Exclude"":[""DM""]},""Use_Case"":""INDH""}",Fully Executable,Published,"['SDTMIG', 'TIG']","['CG0220', 'TIG0434']",['CG0220']
CORE-000138,CG0221,"CG0221, TIG0435",'--STDY is not null when either --STDTC or DM.RFSTDTC do not contain complete values in their date portion,"If --STDTC or DM.RFSTDTC does not contain a complete values, --STDY must be null.","SDTMIG, TIG","3.4, 3.2, 3.3, 1.0","{""Classes"":{""Include"":[""ALL""]},""Domains"":{""Include"":[""ALL""]},""Use_Case"":""INDH""}",Fully Executable,Published,"['SDTMIG', 'TIG']","['CG0221', 'TIG0435']",['CG0221']
CORE-000553,CG0222,"CG0222, TIG0436",'--ENDY is not properly calculated per study day algorithm,Study day must be calculated using the algorithm detailed in the SDTMIG.,"SDTMIG, TIG","3.4, 3.2, 3.3, 1.0","{""Classes"":{""Include"":[""ALL""]},""Domains"":{""Exclude"":[""DM""]},""Use_Case"":""INDH""}",Fully Executable,Published,"['SDTMIG', 'TIG']","['CG0222', 'TIG0436']",['CG0222']
CORE-000139,CG0223,"CG0223, TIG0437",'--ENDY is not null when either --ENDTC or DM.RFSTDTC do not contain complete values in their date portion,"Trigger error if --ENDTC or DM.RFSTDTC does not contain complete values in their date portion, and --ENDY is not null.","SDTMIG, TIG","3.4, 3.3, 3.2, 1.0","{""Classes"":{""Include"":[""ALL""]},""Domains"":{""Exclude"":[""DM""]},""Use_Case"":""INDH""}",Fully Executable,Published,"['SDTMIG', 'TIG']","['CG0223', 'TIG0437']",['CG0223']
CORE-000140,CG0225,"CG0225, TIG0438",VISITDY is not null when VISITNUM is not in TV.VISITNUM,Trigger error if VISITDY is populated when VISITNUM is not in TV.,"SDTMIG, TIG","3.4, 3.3, 3.2, 1.0","{""Classes"":{""Include"":[""ALL""]},""Domains"":{""Include"":[""ALL""]},""Use_Case"":""INDH""}",Fully Executable,Published,"['SDTMIG', 'TIG']","['CG0225', 'TIG0438']",['CG0225']
CORE-000262,CG0226,"CG0226, TIG0439",RFSTDTC in DM dataset is empty but --STRF is completed.,Raise an error when RFSTDTC in DM is empty and --STRF is not empty.,"SDTMIG, TIG","3.4, 3.3, 3.2, 1.0","{""Classes"":{""Include"":[""ALL""]},""Domains"":{""Exclude"":[""DM""]},""Use_Case"":""INDH""}",Fully Executable,Published,"['SDTMIG', 'TIG']","['CG0226', 'TIG0439']",['CG0226']
CORE-000177,CG0227,"CG0227, TIG0440","DM.RFENDTC is empty, but --ENRF is completed.",Raise an error when DM.RFENDTC is empty and --ENRF is not empty.,"SDTMIG, TIG","3.4, 3.3, 3.2, 1.0","{""Classes"":{""Include"":[""ALL""]},""Domains"":{""Exclude"":[""DM""]},""Use_Case"":""INDH""}",Fully Executable,Published,"['SDTMIG', 'TIG']","['CG0227', 'TIG0440']",['CG0227']
CORE-000763,CG0232,"CG0232, TIG0441","'--STTPT is equal to the date of collection or assessment but --STRTPT is not in ('BEFORE', 'COINCIDENT',  'UNKNOWN').","Trigger error when --STRTPT is not in ('BEFORE', 'COINCIDENT', 'UNKNOWN')","SDTMIG, TIG","3.4, 3.2, 3.3, 1.0","{""Classes"":{""Include"":[""ALL""]},""Domains"":{""Include"":[""ALL""]},""Use_Case"":""INDH, PROD""}",Partially Executable,Published,"['SDTMIG', 'TIG']","['CG0232', 'TIG0441']",['CG0232']
CORE-000710,CG0233,"CG0233, TIG0442","'--STRTPT is not in ('BEFORE', 'COINCIDENT', 'AFTER', 'UNKNOWN')","Trigger error when --STRTPT is not in ('BEFORE', 'COINCIDENT', 'AFTER', 'UNKNOWN') and --STTPT is prior to the date of collection or assessment.","SDTMIG, TIG","3.4, 3.2, 3.3, 1.0","{""Classes"":{""Include"":[""ALL""]},""Domains"":{""Include"":[""ALL""]},""Use_Case"":""INDH, PROD""}",Partially Executable,Published,"['SDTMIG', 'TIG']","['CG0233', 'TIG0442']",['CG0233']
CORE-000324,CG0234,"CG0234, TIG0443","'--ENRTPT is not in ('BEFORE', 'COINCIDENT', 'ONGOING', 'UNKNOWN')","Trigger error when --ENRTPT is not in ('BEFORE', 'COINCIDENT', 'ONGOING', 'UNKNOWN')","SDTMIG, TIG","3.4, 3.2, 3.3, 1.0","{""Classes"":{""Include"":[""ALL""]},""Domains"":{""Include"":[""ALL""]},""Use_Case"":""INDH, PROD""}",Partially Executable,Published,"['SDTMIG', 'TIG']","['CG0234', 'TIG0443']",['CG0234']
CORE-000572,CG0235,"CG0235, TIG0444","'--ENRTPT is not in ('BEFORE', 'COINCIDENT', 'ONGOING', 'AFTER', 'UNKNOWN')","Trigger error when --ENRTPT is not in ('BEFORE', 'COINCIDENT', 'ONGOING', 'AFTER', 'UNKNOWN')","SDTMIG, TIG","3.4, 3.2, 3.3, 1.0","{""Classes"":{""Include"":[""ALL""]},""Domains"":{""Include"":[""ALL""]},""Use_Case"":""INDH, PROD""}",Partially Executable,Published,"['SDTMIG', 'TIG']","['CG0235', 'TIG0444']",['CG0235']
CDISC.SDTMIG.CG0236,CG0236,CG0236,"'--DTC is date/time of recording/acquisition, not date/time of specimen collection or observation","Trigger error when --DTC is date/time of recording/acquisition, not date/time of specimen collection or observation",SDTMIG,"3.4, 3.2, 3.3","{""Classes"":{""Include"":[""FINDINGS""]},""Domains"":{""Include"":[""ALL""]}}",Fully Executable,Draft,['SDTMIG'],['CG0236'],['CG0236']
CDISC.SDTMIG.CG0237,CG0237,CG0237,'--DTC is present in dataset and is not populated with the date/time of recording/data acquisition,Trigger error when --DTC is present and not populated with the date/time of recording/data acquisition,SDTMIG,"3.4, 3.2, 3.3","{""Classes"":{""Include"":[""EVENTS"",""INTERVENTIONS""]},""Domains"":{""Include"":[""ALL""]}}",Fully Executable,Draft,['SDTMIG'],['CG0237'],['CG0237']
CDISC.SDTMIG.CG0238,CG0238,CG0238,'--ORRES date/time value is not in ISO 8601 date format,"Where -ORRES is a date or time, it must be entered in an ISO 8601 format",SDTMIG,"3.4, 3.2, 3.3","{""Classes"":{""Include"":[""FINDINGS""]},""Domains"":{""Include"":[""ALL""]}}",Partially Executable,Draft,['SDTMIG'],['CG0238'],['CG0238']
CORE-000141,CG0240,"CG0240, TIG0448, FB0922",'--TPT and --TPTNUM do not have a one-to-one relationship,Trigger error when VISITNUM and --TPTREF are not present and --TPT and --TPTNUM does not have a one-to-one relationship,"SDTMIG, TIG","3.4, 3.3, 3.2, 1.0","{""Classes"":{""Include"":[""ALL""]},""Domains"":{""Include"":[""ALL""]},""Use_Case"":""INDH""}",Fully Executable,Published,"['SDTMIG', 'TIG']","['CG0240', 'TIG0448', 'FB0922']","['CG0240', 'FB0922']"
CORE-000142,CG0241,"CG0241, TIG0449","'--ELTM is not the same value across records with the same values of DOMAIN, VISITNUM, --TPTREF, and --TPTNUM.","Raise an error when --TPT ^= null and --TPTNUM ^= null and --ELTM ^= null and --ELTM does not have the same value across records with the same values of DOMAIN, VISITNUM, --TPTREF, and --TPTNUM.","SDTMIG, TIG","3.4, 3.3, 3.2, 1.0","{""Classes"":{""Include"":[""ALL""]},""Domains"":{""Include"":[""ALL""]},""Use_Case"":""INDH""}",Fully Executable,Published,"['SDTMIG', 'TIG']","['CG0241', 'TIG0449']",['CG0241']
CORE-000371,CG0244,CG0244,"ARM is ""Screen Failure"", ""Not Assigned"", ""Unplanned Treatment"" or ""Not Treated""","Raise an error when ARM is ""Screen Failure"", ""Not Assigned"", ""Unplanned Treatment"" or ""Not Treated""",SDTMIG,3.2,"{""Classes"":{""Include"":[""TRIAL DESIGN""]},""Domains"":{""Include"":[""TA"",""TV""]}}",Fully Executable,Published,['SDTMIG'],['CG0244'],['CG0244']
CORE-000143,CG0246,"CG0246, SEND24, TIG0450, TIG0165",ETCD value is greater than 8,The length of ETCD should be no greater than 8,"SDTMIG, SENDIG, SENDIG-DART, SENDIG-GENETOX, TIG","3.4, 3.3, 3.2, 3.0, 3.1, 3.1.1, 1.1, 1.2, 1.0","{""Classes"":{""Include"":[""TRIAL DESIGN"",""SPECIAL PURPOSE""]},""Domains"":{""Include"":[""TA"",""TE"",""SE""]},""Use_Case"":""INDH, NONCLIN""}",Fully Executable,Published,"['SDTMIG', 'SENDIG', 'SENDIG-DART', 'SENDIG-GENETOX', 'TIG']","['CG0246', 'SEND24', 'TIG0450', 'TIG0165']",['CG0246']
CORE-000144,CG0247,"CG0247, TIG0451",TAETORD is not unique within ARM,Trigger error when TAETORD is not unique within an ARM,"SDTMIG, TIG","3.4, 3.3, 3.2, 1.0","{""Classes"":{""Include"":[""TRIAL DESIGN""]},""Domains"":{""Include"":[""TA""]},""Use_Case"":""INDH""}",Fully Executable,Published,"['SDTMIG', 'TIG']","['CG0247', 'TIG0451']",['CG0247']
CORE-000534,CG0248,"CG0248, SEND221, TIG0452, TIG0148",TAETORD is not an integer,TAETORD must be an integer,"SDTMIG, SENDIG, SENDIG-DART, SENDIG-GENETOX, TIG","3.4, 3.2, 3.3, 3.0, 3.1, 3.1.1, 1.1, 1.2, 1.0","{""Classes"":{""Include"":[""TRIAL DESIGN""]},""Domains"":{""Include"":[""TA""]},""Use_Case"":""INDH, NONCLIN""}",Fully Executable,Published,"['SDTMIG', 'SENDIG', 'SENDIG-DART', 'SENDIG-GENETOX', 'TIG']","['CG0248', 'SEND221', 'TIG0452', 'TIG0148']",['CG0248']
CDISC.SDTMIG.CG0249,CG0249,CG0249,TATRANS is populated when the element does not end with a decision that could lead to a shortened path within the Arm,Trigger error when element does not end with a decision that could lead to a shortened path within the Arm and TATRANS is not null,SDTMIG,"3.4, 3.2, 3.3","{""Classes"":{""Include"":[""TRIAL DESIGN""]},""Domains"":{""Include"":[""TA""]}}",Fully Executable,Draft,['SDTMIG'],['CG0249'],['CG0249']
CDISC.SDTMIG.CG0250,CG0250,CG0250,At least one EPOCH is associated with more than one conceptual trial period,Trigger error when at least one EPOCH is associated with more than one conceptual trial period,SDTMIG,"3.4, 3.2, 3.3","{""Classes"":{""Include"":[""TRIAL DESIGN""]},""Domains"":{""Include"":[""TA""]}}",Fully Executable,Draft,['SDTMIG'],['CG0250'],['CG0250']
CDISC.SDTMIG.CG0251,CG0251,CG0251,TABRANCH is null when trial design branches,Trigger error when trial design branches and TABRANCH is null,SDTMIG,"3.4, 3.2, 3.3","{""Classes"":{""Include"":[""TRIAL DESIGN""]},""Domains"":{""Include"":[""TA""]}}",Fully Executable,Draft,['SDTMIG'],['CG0251'],['CG0251']
CDISC.SDTMIG.CG0252,CG0252,CG0252,TATRANS is null when trial Design allows for a Subject to transition to an Element other than the next Element in sequence,"Trigger error when trial Design allows for a Subject to transition to an Element other than the next Element in sequence, and TATRANS is null",SDTMIG,"3.4, 3.2, 3.3","{""Classes"":{""Include"":[""TRIAL DESIGN""]},""Domains"":{""Include"":[""TA""]}}",Not Executable,Draft,['SDTMIG'],['CG0252'],['CG0252']
CDISC.SDTMIG.CG0253,CG0253,CG0253,TIVERS is null when there is more than one version of the IE criteria in study documentation,Trigger error when TIVERS is null and there is more than one version of the IE criteria in study documentation,SDTMIG,"3.4, 3.2, 3.3","{""Classes"":{""Include"":[""TRIAL DESIGN""]},""Domains"":{""Include"":[""TI""]}}",Not Executable,Draft,['SDTMIG'],['CG0253'],['CG0253']
CDISC.SDTMIG.CG0254,CG0254,CG0254,TIVERS is not present in the data when there is more than one version of the IE criteria,Trigger error when TIVERS is not present in the data and there is more than one version of the IE criteria,SDTMIG,"3.4, 3.2, 3.3","{""Classes"":{""Include"":[""TRIAL DESIGN""]},""Domains"":{""Include"":[""TI""]}}",Fully Executable,Draft,['SDTMIG'],['CG0254'],['CG0254']
CORE-000145,CG0255,CG0255,IETESTCD is not unique within TIVERS,Trigger error when TIVERS is present and IETESTCD is not unique within TIVERS,SDTMIG,"3.4, 3.3, 3.2","{""Classes"":{""Include"":[""TRIAL DESIGN""]},""Domains"":{""Include"":[""TI""]}}",Fully Executable,Published,['SDTMIG'],['CG0255'],['CG0255']
CORE-000146,CG0256,CG0256,IETESTCD is not unique,Trigger error when IETESTCD is not unique within dataset,SDTMIG,"3.4, 3.3, 3.2","{""Classes"":{""Include"":[""TRIAL DESIGN""]},""Domains"":{""Include"":[""TI""]}}",Fully Executable,Published,['SDTMIG'],['CG0256'],['CG0256']
CORE-000147,CG0257,"CG0257, SEND26, TIG0178, TIG0461",Length of TSPARMCD is greater than 8,Trigger error when length of TSPARMCD is greater than 8,"SDTMIG, SENDIG, SENDIG-DART, SENDIG-GENETOX, TIG","3.4, 3.2, 3.3, 3.0, 3.1, 3.1.1, 1.1, 1.2, 1.0","{""Classes"":{""Include"":[""TRIAL DESIGN""]},""Domains"":{""Include"":[""TS""]},""Use_Case"":""INDH, NONCLIN""}",Fully Executable,Published,"['SDTMIG', 'SENDIG', 'SENDIG-DART', 'SENDIG-GENETOX', 'TIG']","['CG0257', 'SEND26', 'TIG0178', 'TIG0461']",['CG0257']
CORE-000148,CG0258,"CG0258, TIG0462",Length of TSPARM is greater than 40,Trigger error when length of TSPARM value is greater than 40,"SDTMIG, TIG","3.4, 3.2, 3.3, 1.0","{""Classes"":{""Include"":[""TRIAL DESIGN""]},""Domains"":{""Include"":[""TS""]},""Use_Case"":""INDH""}",Fully Executable,Published,"['SDTMIG', 'TIG']","['CG0258', 'TIG0462']",['CG0258']
CORE-000149,CG0259,CG0259,TSVALNF is null when TSVAL is null.,Trigger error when TSVAL is null and TSVALNF is null,SDTMIG,"3.4, 3.2, 3.3","{""Classes"":{""Include"":[""TRIAL DESIGN""]},""Domains"":{""Include"":[""TS""]}}",Fully Executable,Published,['SDTMIG'],['CG0259'],['CG0259']
CORE-000150,CG0260,CG0260,TSVALNF is not null when TSVAL is populated,Trigger error when TSVAL is populated and TSVALNF is also populated.,SDTMIG,"3.4, 3.2, 3.3","{""Classes"":{""Include"":[""TRIAL DESIGN""]},""Domains"":{""Include"":[""TS""]}}",Fully Executable,Published,['SDTMIG'],['CG0260'],['CG0260']
CORE-000151,CG0261,"CG0261, SEND281",TSVAL is null when TSVAL1 is populated.,Trigger error when TSVAL1 is populated and TSVAL is null,"SDTMIG, SENDIG, SENDIG-DART, SENDIG-GENETOX","3.4, 3.2, 3.3, 3.0, 3.1, 3.1.1, 1.1, 1.2, 1.0","{""Classes"":{""Include"":[""TRIAL DESIGN""]},""Domains"":{""Include"":[""TS""]}}",Fully Executable,Published,"['SDTMIG', 'SENDIG', 'SENDIG-DART', 'SENDIG-GENETOX']","['CG0261', 'SEND281']",['CG0261']
CORE-000582,CG0262,CG0262,TSVALn is null when TSVAL(n+1) is populated.,Raise an error when TSVAL(n+1) ^= null and TSVALn = null,SDTMIG,"3.4, 3.2, 3.3","{""Classes"":{""Include"":[""TRIAL DESIGN""]},""Domains"":{""Include"":[""TS""]}}",Fully Executable,Published,['SDTMIG'],['CG0262'],['CG0262']
CORE-000152,CG0265,"CG0265, TIG0467",There is not a one-to-one relationship between TSVAL and TSVALCD,"When TSVAL and TSVALCD are populated, there must be a one-to-one relationship between TSVALCD and TSVAL","SDTMIG, TIG","3.4, 3.2, 3.3, 1.0","{""Classes"":{""Include"":[""TRIAL DESIGN""]},""Domains"":{""Include"":[""TS""]},""Use_Case"":""INDH""}",Fully Executable,Published,"['SDTMIG', 'TIG']","['CG0265', 'TIG0467']",['CG0265']
CORE-000153,CG0266,CG0266,TSVCDREF is null when TSVCDVER is populated,Trigger error when TSVCDVER is populated and TSVCDREF is null,SDTMIG,"3.4, 3.2, 3.3","{""Classes"":{""Include"":[""TRIAL DESIGN""]},""Domains"":{""Include"":[""TS""]}}",Fully Executable,Published,['SDTMIG'],['CG0266'],['CG0266']
CDISC.SDTMIG.CG0267,CG0267,CG0267,TSVCDVER is null when Reference Terminology is versioned,Trigger error when Reference Terminology is versioned and TSVCDVER is null,SDTMIG,"3.4, 3.2, 3.3","{""Classes"":{""Include"":[""TRIAL DESIGN""]},""Domains"":{""Include"":[""TS""]}}",Not Executable,Draft,['SDTMIG'],['CG0267'],['CG0267']
CORE-000154,CG0268,"CG0268, SEND246, TIG0167, TIG0470",TSSEQ is not unique within TSPARMCD,TSSEQ must be unique within TSPARMCD,"SDTMIG, SENDIG, SENDIG-DART, SENDIG-GENETOX, TIG","3.4, 3.2, 3.3, 3.0, 3.1, 3.1.1, 1.1, 1.2, 1.0","{""Classes"":{""Include"":[""TRIAL DESIGN""]},""Domains"":{""Include"":[""TS""]},""Use_Case"":""INDH, NONCLIN""}",Fully Executable,Published,"['SDTMIG', 'SENDIG', 'SENDIG-DART', 'SENDIG-GENETOX', 'TIG']","['CG0268', 'SEND246', 'TIG0167', 'TIG0470']",['CG0268']
CORE-000372,CG0269,CG0269,"For TS.TSPARMCD = ""ADDON"" records, TS.TSVAL value must equal ""N"" or ""Y"" when not missing","For TS.TSPARMCD = ""ADDON"" records, TS.TSVAL value must equal ""N"" or ""Y"" when not missing",SDTMIG,"3.2, 3.3","{""Classes"":{""Include"":[""TRIAL DESIGN""]},""Domains"":{""Include"":[""TS""]}}",Fully Executable,Published,['SDTMIG'],['CG0269'],['CG0269']
CORE-000294,CG0270,"CG0270, TIG0471",TSVAL is not in ISO 8601 format,Trigger error when TSPARMCD = 'AGEMAX' and TSVAL ^= null and TSVAL does not conform to ISO 8601,"SDTMIG, TIG","3.4, 3.2, 3.3, 1.0","{""Classes"":{""Include"":[""TRIAL DESIGN""]},""Domains"":{""Include"":[""TS""]},""Use_Case"":""INDH""}",Fully Executable,Published,"['SDTMIG', 'TIG']","['CG0270', 'TIG0471']",['CG0270']
CORE-000373,CG0271,CG0271,"For TS.TSPARMCD = ""RANDOM"" records, TS.TSVAL value must equal ""N"" or ""Y"" when not missing","For TS.TSPARMCD = ""RANDOM"" records, TS.TSVAL value must equal ""N"" or ""Y"" when not missing",SDTMIG,"3.2, 3.3","{""Classes"":{""Include"":[""TRIAL DESIGN""]},""Domains"":{""Include"":[""TS""]}}",Fully Executable,Published,['SDTMIG'],['CG0271'],['CG0271']
CORE-000473,CG0272,CG0272,A record exists in TS where TSPARMCD = HLTSUBJI and TSVAL = Y but TSVAL for TSPARMCD = TDIGRP is not empty or does not equal HEALTHY SUBJECTS.,Raise an error when a record exists in TS where TSPARMCD = HLTSUBJI and TSVAL = Y but TSVAL for TSPARMCD = TDIGRP is not empty or does not equal HEALTHY SUBJECTS.,SDTMIG,"3.2, 3.3","{""Classes"":{""Include"":[""TRIAL DESIGN""]},""Domains"":{""Include"":[""TS""]}}",Fully Executable,Published,['SDTMIG'],['CG0272'],['CG0272']
CORE-000562,CG0273,CG0273,A record exists in TS where TSPARMCD = HLTSUBJI and TSVAL = N but TSVAL for TSPARMCD = TDIGRP is empty.,Raise an error when a record exists in TS where TSPARMCD = HLTSUBJI and TSVAL = N but TSVAL for TSPARMCD = TDIGRP is empty.,SDTMIG,"3.2, 3.3","{""Classes"":{""Include"":[""TRIAL DESIGN""]},""Domains"":{""Include"":[""TS""]}}",Fully Executable,Published,['SDTMIG'],['CG0273'],['CG0273']
CORE-000532,CG0275,CG0275,A record exists in TS where TSPARMCD = ADDON and TSVAL = Y but TSVAL for TSPARMCD = CURTRT is empty.,Raise an error when a record exists in TS where TSPARMCD = ADDON and TSVAL = Y but TSVAL for TSPARMCD = CURTRT is empty.,SDTMIG,"3.2, 3.3","{""Classes"":{""Include"":[""TRIAL DESIGN""]},""Domains"":{""Include"":[""TS""]}}",Fully Executable,Published,['SDTMIG'],['CG0275'],['CG0275']
CORE-000468,CG0276,CG0276,A record exists in TS where TSPARMCD = STYPE and TSVAL = INTERVENTIONAL but TSVAL for TSPARMCD = TRT is empty.,Raise an error when a record exists in TS where TSPARMCD = STYPE and TSVAL = INTERVENTIONAL but TSVAL for TSPARMCD = TRT is empty.,SDTMIG,"3.2, 3.3","{""Classes"":{""Include"":[""TRIAL DESIGN""]},""Domains"":{""Include"":[""TS""]}}",Fully Executable,Published,['SDTMIG'],['CG0276'],['CG0276']
CORE-000469,CG0277,CG0277,A record exists in TS where TSPARMCD = STYPE and TSVAL = INTERVENTIONAL but TSVAL for TSPARMCD = INTMODEL is empty.,Raise an error when a record exists in TS where TSPARMCD = STYPE and TSVAL = INTERVENTIONAL but TSVAL for TSPARMCD = INTMODEL is empty.,SDTMIG,"3.2, 3.3","{""Classes"":{""Include"":[""TRIAL DESIGN""]},""Domains"":{""Include"":[""TS""]}}",Fully Executable,Published,['SDTMIG'],['CG0277'],['CG0277']
CORE-000470,CG0278,CG0278,A record exists in TS where TSPARMCD = STYPE and TSVAL = INTERVENTIONAL but TSVAL for TSPARMCD = INTTYPE is empty.,Raise an error when a record exists in TS where TSPARMCD = STYPE and TSVAL = INTERVENTIONAL but TSVAL for TSPARMCD = INTTYPE is empty.,SDTMIG,"3.2, 3.3","{""Classes"":{""Include"":[""TRIAL DESIGN""]},""Domains"":{""Include"":[""TS""]}}",Fully Executable,Published,['SDTMIG'],['CG0278'],['CG0278']
CORE-000497,CG0279,CG0279,A record exists in TS where TSPARMCD = STYPE and TSVAL = INTERVENTIONAL but TSVAL for TSPARMCD = PCLAS is empty when PCLAS is applicable.,Raise an error when a record exists in TS where TSPARMCD = STYPE and TSVAL = INTERVENTIONAL but TSVAL for TSPARMCD = TPCLAS is empty but applicable.,SDTMIG,"3.2, 3.3","{""Classes"":{""Include"":[""TRIAL DESIGN""]},""Domains"":{""Include"":[""TS""]}}",Partially Executable - Possible Overreporting,Published,['SDTMIG'],['CG0279'],['CG0279']
CORE-000335,CG0280,CG0280,"TSPARMCD = ""RANDQT"" but TSVAL is not a number between 0 and 1.","Raise an error when TSPARMCD = ""RANDQT"" and the value provided in TSVAL is not a number between 0 and 1.",SDTMIG,"3.2, 3.3","{""Classes"":{""Include"":[""TRIAL DESIGN""]},""Domains"":{""Include"":[""TS""]}}",Fully Executable,Published,['SDTMIG'],['CG0280'],['CG0280']
CORE-000733,CG0281,CG0281,TSPARMCD = RANDQT record is not present,At least one observation where TSPARMCD = TRT is present and there is only one investigational treatment,SDTMIG,"3.2, 3.3","{""Classes"":{""Include"":[""TRIAL DESIGN""]},""Domains"":{""Include"":[""TS""]}}",Fully Executable,Published,['SDTMIG'],['CG0281'],['CG0281']
CORE-000563,CG0282,CG0282,TSVAL must be either Y or N when TSPARMCD is ADAPT,TSVAL must be either Y or N when TSPARMCD is ADAPT,SDTMIG,"3.2, 3.3","{""Classes"":{""Include"":[""TRIAL DESIGN""]},""Domains"":{""Include"":[""TS""]}}",Fully Executable,Published,['SDTMIG'],['CG0282'],['CG0282']
CORE-000504,CG0283,CG0283,Invalid date for TSVAL for TSPARMCD = DCUTDTC (Data Cutoff Date),Raise an error when TSVAL for TSPARMCD=DCUTDTC is not a valid date/time,SDTMIG,"3.2, 3.3","{""Classes"":{""Include"":[""TRIAL DESIGN""]},""Domains"":{""Include"":[""TS""]}}",Fully Executable,Published,['SDTMIG'],['CG0283'],['CG0283']
CORE-000587,CG0284,CG0284,TSVAL must be an integer greater than zero when TSPARMCD is NARMS,Check that TVAL is an integer > 0 when TSPARMCD is NARMS,SDTMIG,"3.2, 3.3","{""Classes"":{""Include"":[""TRIAL DESIGN""]},""Domains"":{""Include"":[""TS""]}}",Fully Executable,Published,['SDTMIG'],['CG0284'],['CG0284']
CORE-000505,CG0285,"CG0285, TRC1734c",Invalid date for TSVAL for TSPARMCD = SSTDTC (Study Start Date),Raise an error when TSVAL for TSPARMCD=SSTDTC is not a valid date/time,"SDTMIG, SENDIG, SENDIG-GENETOX, SENDIG-DART, SENDIG-AR","3.2, 3.3, 3.4, 3.0, 3.1, 3.1.1, 1.0, 1.1, 1.2","{""Classes"":{""Include"":[""TRIAL DESIGN""]},""Domains"":{""Include"":[""TS""]}}",Fully Executable,Published,"['SDTMIG', 'SENDIG', 'SENDIG-GENETOX', 'SENDIG-DART', 'SENDIG-AR']","['CG0285', 'TRC1734c']",['CG0285']
CORE-000506,CG0286,CG0286,Invalid date for TSVAL for TSPARMCD = SENDTC (Study End Date),Raise an error when TSVAL for TSPARMCD=SENDTC is not a valid date/time,SDTMIG,"3.2, 3.3","{""Classes"":{""Include"":[""TRIAL DESIGN""]},""Domains"":{""Include"":[""TS""]}}",Fully Executable,Published,['SDTMIG'],['CG0286'],['CG0286']
CORE-000740,CG0287,CG0287,A required value of TSPARMCD is not found,A required value of TSPARMCD is not found,SDTMIG,"3.2, 3.3","{""Classes"":{""Include"":[""TRIAL DESIGN""]},""Domains"":{""Include"":[""TS""]}}",Fully Executable,Published,['SDTMIG'],['CG0287'],['CG0287']
CDISC.SDTMIG.CG0288,CG0288,CG0288,TSVALCD is not a valid code in the version identified in TSVCDVER.,Raise an error when TSVCDREF ='CDISC' and TSVALCD is not a valid code in the version identified in TSVCDVER.,SDTMIG,"3.4, 3.3, 3.2","{""Classes"":{""Include"":[""TRIAL DESIGN""]},""Domains"":{""Include"":[""TS""]}}",Fully Executable,Draft,['SDTMIG'],['CG0288'],['CG0288']
CORE-000761,CG0289,CG0289,TSVCDVER is not a valid published version (date),Trigger error when TSVCDREF = 'CDISC' and TSVCDVER is not a valid published version (date),SDTMIG,"3.4, 3.2, 3.3","{""Classes"":{""Include"":[""TRIAL DESIGN""]},""Domains"":{""Include"":[""TS""]}}",Fully Executable,Published,['SDTMIG'],['CG0289'],['CG0289']
CORE-000787,CG0291,CG0291,TSVAL is populated with an ISO 21090 null flavor or null flavor description.,Raise an error when TSVALNF is empty and TSVAL is populated with values or synonyms of values in the ISO 21090 null flavor codelist (or other terms that can be represented as null flavors),SDTMIG,"3.4, 3.3, 3.2","{""Classes"":{""Include"":[""TRIAL DESIGN""]},""Domains"":{""Include"":[""TS""]}}",Fully Executable,Published,['SDTMIG'],['CG0291'],['CG0291']
CORE-000155,CG0293,"CG0293, TIG0475",ARMCD is not in TA.ARMCD,Trigger error when ARMCD is populated and ARMCD is not in TA.ARMCD,"SDTMIG, TIG","3.4, 3.2, 3.3, 1.0","{""Classes"":{""Include"":[""TRIAL DESIGN""]},""Domains"":{""Include"":[""TV""]},""Use_Case"":""INDH""}",Fully Executable,Published,"['SDTMIG', 'TIG']","['CG0293', 'TIG0475']",['CG0293']
CORE-000156,CG0294,"CG0294, TIG0476",ARM is not in TA.ARM,Trigger error when ARM is populated and ARM is not in TA.ARM,"SDTMIG, TIG","3.4, 3.2, 3.3, 1.0","{""Classes"":{""Include"":[""TRIAL DESIGN""]},""Domains"":{""Include"":[""TV""]},""Use_Case"":""INDH""}",Fully Executable,Published,"['SDTMIG', 'TIG']","['CG0294', 'TIG0476']",['CG0294']
CDISC.SDTMIG.CG0295,CG0295,CG0295,ARMCD is populated and the timing and number of Visits for a trial does not depend on which ARM a subject is in,Trigger error when ARMCD is populated and the timing and number of Visits for a trial does not depend on which ARM a subject is in,SDTMIG,"3.4, 3.2, 3.3","{""Classes"":{""Include"":[""TRIAL DESIGN""]},""Domains"":{""Include"":[""TV""]}}",Fully Executable,Draft,['SDTMIG'],['CG0295'],['CG0295']
CDISC.SDTMIG.CG0296,CG0296,CG0296,,Trigger error when ARM is populated and the timing and number of Visits for a trial does not depend on which ARM a subject is in,SDTMIG,"3.4, 3.2, 3.3","{""Classes"":{""Include"":[""TRIAL DESIGN""]},""Domains"":{""Include"":[""TV""]}}",Fully Executable,Draft,['SDTMIG'],['CG0296'],['CG0296']
CORE-000157,CG0297,"CG0297, TIG0479",Length of ARMCD is greater than 20,The length of ARMCD is limited to 20 characters.,"SDTMIG, TIG","3.4, 3.2, 3.3, 1.0","{""Classes"":{""Include"":[""TRIAL DESIGN""]},""Domains"":{""Include"":[""TV""]},""Use_Case"":""INDH""}",Fully Executable,Published,"['SDTMIG', 'TIG']","['CG0297', 'TIG0479']",['CG0297']
CDISC.SDTMIG.CG0298,CG0298,CG0298,VISIT is not described in the protocol,Trigger error when a visit is not described in the protocol,SDTMIG,"3.4, 3.2, 3.3","{""Classes"":{""Include"":[""TRIAL DESIGN""]},""Domains"":{""Include"":[""TV""]}}",Fully Executable,Draft,['SDTMIG'],['CG0298'],['CG0298']
CORE-000003,CG0299,CG0299,TRLOC is present when TRLOC is not included in the TR domain.,Raise an error when TRLOC is present.,SDTMIG,"3.4, 3.2, 3.3","{""Classes"":{""Include"":[""FINDINGS""]},""Domains"":{""Include"":[""TR""]}}",Fully Executable,Published,['SDTMIG'],['CG0299'],['CG0299']
CORE-000078,CG0300,CG0300,TRLAT is present.,Raise an error when TRLAT is present.,SDTMIG,"3.4, 3.2, 3.3","{""Classes"":{""Include"":[""FINDINGS""]},""Domains"":{""Include"":[""TR""]}}",Fully Executable,Published,['SDTMIG'],['CG0300'],['CG0300']
CORE-000077,CG0301,CG0301,TRDIR is present.,Raise an error when TRDIR is present.,SDTMIG,"3.4, 3.2, 3.3","{""Classes"":{""Include"":[""FINDINGS""]},""Domains"":{""Include"":[""TR""]}}",Fully Executable,Published,['SDTMIG'],['CG0301'],['CG0301']
CORE-000076,CG0302,CG0302,TRPORTOT is present.,Raise an error when TRPORTOT is present.,SDTMIG,"3.4, 3.2, 3.3","{""Classes"":{""Include"":[""FINDINGS""]},""Domains"":{""Include"":[""TR""]}}",Fully Executable,Published,['SDTMIG'],['CG0302'],['CG0302']
CORE-000398,CG0303,"CG0303, SEND276",The label of the variable does not correspond to the label in the IG,Raise an error when the variable label for an IG-variable does not correspond to the variable label in the Implementation Guide.,"SDTMIG, SENDIG, SENDIG-DART, SENDIG-GENETOX","3.2, 3.0, 3.1, 3.1.1, 1.1, 1.2, 1.0","{""Classes"":{""Include"":[""ALL""]},""Domains"":{""Include"":[""ALL""]}}",Fully Executable,Published,"['SDTMIG', 'SENDIG', 'SENDIG-DART', 'SENDIG-GENETOX']","['CG0303', 'SEND276']",['CG0303']
CORE-000075,CG0304,"CG0304, TIG0481",AEREASND is present.,Raise an error when AEREASND is present.,"SDTMIG, TIG","3.4, 3.2, 3.3, 1.0","{""Classes"":{""Include"":[""EVENTS""]},""Domains"":{""Include"":[""AE""]},""Use_Case"":""INDH""}",Fully Executable,Published,"['SDTMIG', 'TIG']","['CG0304', 'TIG0481']",['CG0304']
CORE-000179,CG0307,"CG0307, TIG0482, FB0916",TSPARM and TSPARMCD don't have a one-to-one relationship.,Raise an error when TSPARM and TSPARMCD don't have a one-to-one relationship.,"SDTMIG, TIG, SENDIG, SENDIG-GENETOX, SENDIG-DART, SENDIG-AR","3.4, 3.2, 3.3, 1.0, 3.0, 3.1, 3.1.1, 1.1, 1.2","{""Classes"":{""Include"":[""TRIAL DESIGN""]},""Domains"":{""Include"":[""TS""]},""Use_Case"":""INDH""}",Fully Executable,Published,"['SDTMIG', 'TIG', 'SENDIG', 'SENDIG-GENETOX', 'SENDIG-DART', 'SENDIG-AR']","['CG0307', 'TIG0482', 'FB0916']","['CG0307', 'FB0916']"
CORE-000180,CG0308,"CG0308, TIG0483",Domain value length is not equal 2.,Raise an error when DOMAIN value length is not equal 2.,"SDTMIG, TIG","3.4, 3.2, 3.3, 1.0","{""Classes"":{""Exclude"":[""RELATIONSHIP""]},""Domains"":{""Exclude"":[""AP--""]},""Use_Case"":""INDH, PROD""}",Fully Executable,Published,"['SDTMIG', 'TIG']","['CG0308', 'TIG0483']",['CG0308']
CORE-000181,CG0309,CG0309,AP-- Domain value length is not equal to 4.,Raise an error when AP-- domain value length is not equal to 4.,SDTMIG,"3.4, 3.2, 3.3","{""Classes"":{""Include"":[""ALL""]},""Domains"":{""Include"":[""AP--""]}}",Fully Executable,Published,['SDTMIG'],['CG0309'],['CG0309']
CORE-000182,CG0310,"CG0310, SEND2, TIG0485, TIG0128",Variable name length is greater than 8.,Raise an error when variable name length is greater than 8.,"SDTMIG, SENDIG, SENDIG-DART, SENDIG-GENETOX, TIG","3.4, 3.2, 3.3, 3.1.1, 3.1, 3.0, 1.1, 1.2, 1.0","{""Classes"":{""Include"":[""ALL""]},""Domains"":{""Include"":[""ALL""]},""Use_Case"":""INDH, PROD, NONCLIN""}",Fully Executable,Published,"['SDTMIG', 'SENDIG', 'SENDIG-DART', 'SENDIG-GENETOX', 'TIG']","['CG0310', 'SEND2', 'TIG0485', 'TIG0128']",['CG0310']
CORE-000019,CG0311,"CG0311, SEND3, TIG0486, TIG0211",Variable label length should be less than or equal to 40 characters,Raise and error if Variable label length > 40 characters,"SDTMIG, SENDIG, SENDIG-DART, SENDIG-GENETOX, TIG","3.4, 3.2, 3.3, 3.1, 3.1.1, 3.0, 1.1, 1.2, 1.0","{""Classes"":{""Include"":[""ALL""]},""Domains"":{""Include"":[""ALL""]},""Use_Case"":""INDH, PROD, NONCLIN""}",Fully Executable,Published,"['SDTMIG', 'SENDIG', 'SENDIG-DART', 'SENDIG-GENETOX', 'TIG']","['CG0311', 'SEND3', 'TIG0486', 'TIG0211']",['CG0311']
CDISC.SDTMIG.CG0312,CG0312,CG0312,Custom domains use the reserved or modelled standard names.,Raise an error when custom domains use the reserved or modelled standard names,SDTMIG,"3.4, 3.2, 3.3","{""Classes"":{""Include"":[""ALL""]},""Domains"":{""Include"":[""ALL""]}}",Fully Executable,Draft,['SDTMIG'],['CG0312'],['CG0312']
CORE-000585,CG0313,CG0313,"One of following variables is not present in the dataset; STUDYID, DOMAIN, USUBJID (or POOLID) or --SEQ.","Raise an error when one of the following variables; STUDYID, DOMAIN, USUBJID (or POOLID) or --SEQ is not present in the dataset.",SDTMIG,3.2,"{""Classes"":{""Include"":[""INTERVENTIONS"",""EVENTS"",""FINDINGS""]},""Domains"":{""Include"":[""ALL""]}}",Fully Executable,Published,['SDTMIG'],['CG0313'],['CG0313']
CORE-000783,CG0314,"CG0314, SEND274, SEND274.1","SUPP--.QNAM is present in the dataset, but the value of SUPP--.QNAM equals a variable name defined in the corresponding SDTM version.","Raise an error when SUPP--.QNAM is present in dataset, but value of SUPP--.QNAM is equal to a variable name defined in the corresponding SDTM version.","SDTMIG, SENDIG, SENDIG-GENETOX, SENDIG-DART","3.4, 3.2, 3.3, 3.0, 3.1, 3.1.1, 1.0, 1.1, 1.2","{""Classes"":{""Include"":[""RELATIONSHIP""]},""Domains"":{""Include"":[""SUPP--""]}}",Fully Executable,Published,"['SDTMIG', 'SENDIG', 'SENDIG-GENETOX', 'SENDIG-DART']","['CG0314', 'SEND274', 'SEND274.1']",['CG0314']
CORE-000183,CG0318,"CG0318, TIG0489","PP dataset is present in  study, but PC dataset is not present in study.","Raise an error when a PP dataset is present in study, but a PC dataset is not present in study.","SDTMIG, TIG","3.4, 3.2, 3.3, 1.0","{""Classes"":{""Include"":[""FINDINGS""]},""Domains"":{""Include"":[""PC"",""PP""]},""Use_Case"":""INDH""}",Fully Executable,Published,"['SDTMIG', 'TIG']","['CG0318', 'TIG0489']",['CG0318']
CDISC.SDTMIG.CG0320,CG0320,CG0320,'--TESTCD does not exist in custom Findings domain.,Raise an error when variable --TESTCD is missing for custom Findings domains,SDTMIG,"3.4, 3.2, 3.3","{""Classes"":{""Include"":[""ALL""]},""Domains"":{""Include"":[""ALL""]}}",Fully Executable,Draft,['SDTMIG'],['CG0320'],['CG0320']
CDISC.SDTMIG.CG0321,CG0321,CG0321,Custom domain is not based on one of the observation classes,Trigger error when a custom domain is present and is not based on one of the observation classes,SDTMIG,"3.4, 3.2, 3.3","{""Classes"":{""Include"":[""ALL""]},""Domains"":{""Include"":[""ALL""]}}",Fully Executable,Draft,['SDTMIG'],['CG0321'],['CG0321']
CDISC.SDTMIG.CG0322,CG0322,CG0322,ELEMENT value refers to a specific ARM when ELEMENT is associated with more than 1 arm,"When ELEMENT is associated with more than 1 arm, the ELEMENT value must not refer to a specific ARM",SDTMIG,"3.4, 3.2, 3.3","{""Classes"":{""Include"":[""TRIAL DESIGN""]},""Domains"":{""Include"":[""TE""]}}",Fully Executable,Draft,['SDTMIG'],['CG0322'],['CG0322']
CDISC.SDTMIG.CG0323,CG0323,CG0323,ELEMENT refers to a specific EPOCH when ELEMENT is associated with more than 1 EPOCH,"When ELEMENT is associated with more than 1 EPOCH, ELEMENT should not refer to a specific EPOCH.",SDTMIG,"3.4, 3.2, 3.3","{""Classes"":{""Include"":[""TRIAL DESIGN""]},""Domains"":{""Include"":[""TA"",""TE""]}}",Fully Executable,Draft,['SDTMIG'],['CG0323'],['CG0323']
CDISC.SDTMIG.CG0324,CG0324,CG0324,TEENRL refers to a specific ARM,TEENRL should not reference a specific ARM.  This rule has only been partially executed to identify explicit references to ARM.,SDTMIG,"3.4, 3.2, 3.3","{""Classes"":{""Include"":[""STUDY REFERENCE""]},""Domains"":{""Include"":[""TE""]}}",Fully Executable,Draft,['SDTMIG'],['CG0324'],['CG0324']
CORE-000580,CG0325,"CG0325, TIG0495","The combination of TESTRL, TEENRL, and TEDUR is not unique for each ETCD.","The combination of TESTRL, TEENRL, and TEDUR must be unique for each ETCD.","SDTMIG, TIG","3.4, 3.2, 3.3, 1.0","{""Classes"":{""Include"":[""TRIAL DESIGN""]},""Domains"":{""Include"":[""TE""]},""Use_Case"":""INDH""}",Fully Executable,Published,"['SDTMIG', 'TIG']","['CG0325', 'TIG0495']",['CG0325']
CORE-000027,CG0328,"CG0328, TIG0496, CG0329, TIG0497, SEND214, TIG0141",At least one of TEENRL and TEDUR must be populated.,Either TEENRL or TEDUR must be present for each Element.,"SDTMIG, TIG, SENDIG, SENDIG-DART, SENDIG-GENETOX","3.4, 3.2, 3.3, 1.0, 3.0, 3.1, 3.1.1, 1.1, 1.2","{""Classes"":{""Include"":[""TRIAL DESIGN""]},""Domains"":{""Include"":[""TE""]},""Use_Case"":""INDH, NONCLIN""}",Fully Executable,Published,"['SDTMIG', 'TIG', 'SENDIG', 'SENDIG-DART', 'SENDIG-GENETOX']","['CG0328', 'TIG0496', 'CG0329', 'TIG0497', 'SEND214', 'TIG0141']","['CG0328', 'CG0329']"
CORE-000027,CG0329,"CG0328, TIG0496, CG0329, TIG0497, SEND214, TIG0141",At least one of TEENRL and TEDUR must be populated.,Either TEENRL or TEDUR must be present for each Element.,"SDTMIG, TIG, SENDIG, SENDIG-DART, SENDIG-GENETOX","3.4, 3.2, 3.3, 1.0, 3.0, 3.1, 3.1.1, 1.1, 1.2","{""Classes"":{""Include"":[""TRIAL DESIGN""]},""Domains"":{""Include"":[""TE""]},""Use_Case"":""INDH, NONCLIN""}",Fully Executable,Published,"['SDTMIG', 'TIG', 'SENDIG', 'SENDIG-DART', 'SENDIG-GENETOX']","['CG0328', 'TIG0496', 'CG0329', 'TIG0497', 'SEND214', 'TIG0141']","['CG0328', 'CG0329']"
CORE-000852,CG0330,"CG0330, CG0664, TIG0698, SEND48",Variables are not in the correct order as shown in SDTM for the observation class.,Raise an error when variables are not in the specified order,"SDTMIG, TIG, SENDIG, SENDIG-GENETOX, SENDIG-DART","3.2, 3.3, 3.4, 1.0, 3.0, 3.1, 3.1.1, 1.1, 1.2","{""Classes"":{""Include"":[""ALL""]},""Domains"":{""Include"":[""ALL""]}}",Fully Executable,Published,"['SDTMIG', 'TIG', 'SENDIG', 'SENDIG-GENETOX', 'SENDIG-DART']","['CG0330', 'CG0664', 'TIG0698', 'SEND48']","['CG0330', 'CG0664']"
CORE-000539,CG0332,"CG0332, TIG0498",Split dataset is present but the two-Letter parent domain is missing.,Raise an error when split domains (i.e three/four-letter domain name) do not have a two-letter parent domain present in the study.,"SDTMIG, TIG","3.4, 3.2, 3.3, 1.0","{""Classes"":{""Include"":[""ALL""]},""Domains"":{""Exclude"":[""RELREC"",""RELSUB"",""SUPP--""]},""Use_Case"":""INDH, PROD""}",Fully Executable,Published,"['SDTMIG', 'TIG']","['CG0332', 'TIG0498']",['CG0332']
CORE-000540,CG0333,"CG0333, TIG0499",Parent domain referenced in Findings About dataset name is not present in the study,Raise an error when parent domain referenced in Findings About dataset name is not present in the study.,"SDTMIG, TIG","3.4, 3.2, 3.3, 1.0","{""Classes"":{""Include"":[""ALL""]},""Domains"":{""Include"":[""ALL""],""include_split_datasets"":true},""Use_Case"":""INDH""}",Fully Executable,Published,"['SDTMIG', 'TIG']","['CG0333', 'TIG0499']",['CG0333']
CORE-000538,CG0334,"CG0334, TIG0500",RDOMAIN does not match characters 5 and 6 of the dataset name,Trigger error when RDOMAIN does not match characters 5 and 6 of the Supplementary dataset name,"SDTMIG, TIG","3.4, 3.2, 3.3, 1.0","{""Classes"":{""Include"":[""ALL""]},""Domains"":{""Include"":[""SUPP--""]},""Use_Case"":""INDH, PROD""}",Fully Executable,Published,"['SDTMIG', 'TIG']","['CG0334', 'TIG0500']",['CG0334']
CORE-000272,CG0336,"CG0336, SEND46, TIG0501",'--CAT is equal to DOMAIN.,Raise an error when --CAT = DOMAIN.,"SDTMIG, SENDIG, SENDIG-DART, SENDIG-GENETOX, TIG","3.4, 3.3, 3.2, 3.0, 3.1, 3.1.1, 1.1, 1.2, 1.0","{""Classes"":{""Include"":[""ALL""]},""Domains"":{""Include"":[""ALL""]},""Use_Case"":""INDH, PROD""}",Fully Executable,Published,"['SDTMIG', 'SENDIG', 'SENDIG-DART', 'SENDIG-GENETOX', 'TIG']","['CG0336', 'SEND46', 'TIG0501']",['CG0336']
CORE-000196,CG0337,"CG0337, TIG0502",'--CAT is equal to --DECOD.,Raise an error when --CAT = --DECOD.,"SDTMIG, TIG","3.4, 3.3, 3.2, 1.0","{""Classes"":{""Include"":[""EVENTS""]},""Domains"":{""Include"":[""ALL""]},""Use_Case"":""INDH""}",Fully Executable,Published,"['SDTMIG', 'TIG']","['CG0337', 'TIG0502']",['CG0337']
CORE-000195,CG0338,"CG0338, TIG0503",'--SCAT is equal to --DECOD.,Raise an error when --SCAT = --DECOD.,"SDTMIG, TIG","3.4, 3.3, 3.2, 1.0","{""Classes"":{""Include"":[""EVENTS""]},""Domains"":{""Include"":[""ALL""]},""Use_Case"":""INDH""}",Fully Executable,Published,"['SDTMIG', 'TIG']","['CG0338', 'TIG0503']",['CG0338']
CORE-000197,CG0339,"CG0339, TIG0504",'--CAT is equal to --BODSYS.,Raise an error when --CAT = --BODSYS.,"SDTMIG, TIG","3.4, 3.3, 3.2, 1.0","{""Classes"":{""Include"":[""EVENTS""]},""Domains"":{""Include"":[""ALL""]},""Use_Case"":""INDH""}",Fully Executable,Published,"['SDTMIG', 'TIG']","['CG0339', 'TIG0504']",['CG0339']
CORE-000198,CG0340,"CG0340, TIG0505",'--SCAT is equal to --BODSYS.,Raise an error when --SCAT = --BODSYS.,"SDTMIG, TIG","3.4, 3.3, 3.2, 1.0","{""Classes"":{""Include"":[""EVENTS""]},""Domains"":{""Include"":[""ALL""]},""Use_Case"":""INDH""}",Fully Executable,Published,"['SDTMIG', 'TIG']","['CG0340', 'TIG0505']",['CG0340']
CORE-000159,CG0341,"CG0341, TIG0506",'--TESTCD is equal to 'OTHER',Raise an error when --TESTCD = 'OTHER',"SDTMIG, TIG","3.4, 3.3, 3.2, 1.0","{""Classes"":{""Include"":[""FINDINGS""]},""Domains"":{""Include"":[""ALL""]},""Use_Case"":""INDH, PROD""}",Fully Executable,Published,"['SDTMIG', 'TIG']","['CG0341', 'TIG0506']",['CG0341']
CORE-000160,CG0342,"CG0342, TIG0507",'--TRT is equal to 'OTHER',Raise an error when --TRT = 'OTHER',"SDTMIG, TIG","3.4, 3.3, 3.2, 1.0","{""Classes"":{""Include"":[""INTERVENTIONS""]},""Domains"":{""Include"":[""ALL""]},""Use_Case"":""INDH""}",Fully Executable,Published,"['SDTMIG', 'TIG']","['CG0342', 'TIG0507']",['CG0342']
CORE-000161,CG0343,"CG0343, TIG0508",'--TERM is equal to 'OTHER',Raise an error when --TERM = 'OTHER',"SDTMIG, TIG","3.4, 3.3, 3.2, 1.0","{""Classes"":{""Include"":[""EVENTS""]},""Domains"":{""Include"":[""ALL""]},""Use_Case"":""INDH""}",Fully Executable,Published,"['SDTMIG', 'TIG']","['CG0343', 'TIG0508']",['CG0343']
CORE-000162,CG0344,"CG0344, TIG0509",'--TESTCD is equal to 'MULTIPLE',Raise an error when --TESTCD = 'MULTIPLE',"SDTMIG, TIG","3.4, 3.3, 3.2, 1.0","{""Classes"":{""Include"":[""FINDINGS""]},""Domains"":{""Include"":[""ALL""]},""Use_Case"":""INDH, PROD""}",Fully Executable,Published,"['SDTMIG', 'TIG']","['CG0344', 'TIG0509']",['CG0344']
CORE-000163,CG0345,"CG0345, TIG0510",'--TRT is equal to 'MULTIPLE',Raise an error when --TRT = 'MULTIPLE',"SDTMIG, TIG","3.4, 3.3, 3.2, 1.0","{""Classes"":{""Include"":[""INTERVENTIONS""]},""Domains"":{""Include"":[""ALL""]},""Use_Case"":""INDH""}",Fully Executable,Published,"['SDTMIG', 'TIG']","['CG0345', 'TIG0510']",['CG0345']
CORE-000164,CG0346,"CG0346, TIG0511",'--TERM is equal to 'MULTIPLE',Raise an error when --TERM = 'MULTIPLE',"SDTMIG, TIG","3.4, 3.3, 3.2, 1.0","{""Classes"":{""Include"":[""EVENTS""]},""Domains"":{""Include"":[""ALL""]},""Use_Case"":""INDH""}",Fully Executable,Published,"['SDTMIG', 'TIG']","['CG0346', 'TIG0511']",['CG0346']
CDISC.SDTMIG.CG0347,CG0347,CG0347,"'--ORRES is equal to MULTIPLE when it is not a valid response in the context of the finding (e.g., Questionnaire CT)","Trigger error when --ORRES is equal to MULTIPLE when it is not a valid response in the context of the finding (e.g., Questionnaire CT)",SDTMIG,"3.4, 3.2, 3.3","{""Classes"":{""Include"":[""FINDINGS""]},""Domains"":{""Include"":[""ALL""]}}",Fully Executable,Draft,['SDTMIG'],['CG0347'],['CG0347']
CORE-000200,CG0348,"CG0348, TIG0513",'--ORRES cannot be null when --STAT is null or --DRVFL not equal to 'Y',Verify that --ORRES is not missing when either --STAT is null or --DRVFL not equal to 'Y',"SDTMIG, TIG","3.4, 3.2, 3.3, 1.0","{""Classes"":{""Include"":[""FINDINGS""]},""Domains"":{""Include"":[""ALL""]},""Use_Case"":""INDH, PROD""}",Fully Executable,Published,"['SDTMIG', 'TIG']","['CG0348', 'TIG0513']",['CG0348']
CORE-000376,CG0349,"CG0349, TIG0514",First 2 characters of prefixed variable within custom domain do not match the DOMAIN value.,Raise an error when the two first characters of a prefixed variable within a custom domain do not match the DOMAIN value.,"SDTMIG, TIG","3.4, 3.2, 3.3, 1.0","{""Classes"":{""Include"":[""FINDINGS"",""INTERVENTIONS"",""EVENTS""]},""Domains"":{""Include"":[""ALL""]},""Use_Case"":""INDH, PROD""}",Fully Executable,Published,"['SDTMIG', 'TIG']","['CG0349', 'TIG0514']",['CG0349']
CORE-000219,CG0350,"CG0350, SEND44, TIG0515",'--SCAT is equal to domain dataset label.,Raise an error when --SCAT = domain dataset label.,"SDTMIG, SENDIG, SENDIG-GENETOX, SENDIG-DART, TIG","3.4, 3.3, 3.2, 3.0, 3.1, 3.1.1, 1.0, 1.1, 1.2","{""Classes"":{""Include"":[""ALL""]},""Domains"":{""Include"":[""ALL""]},""Use_Case"":""INDH, PROD""}",Fully Executable,Published,"['SDTMIG', 'SENDIG', 'SENDIG-GENETOX', 'SENDIG-DART', 'TIG']","['CG0350', 'SEND44', 'TIG0515']",['CG0350']
CDISC.SDTMIG.CG0013-1,CG0351,"CG0013, CG0351",Variables not listed in the Model List of Allowed Variables for Observation Class should be in SUPPQUAL.,Trigger error when variable is not an allowed variable for an Observation Class,SDTMIG,3.3,"{""Classes"":{""Include"":[""ALL""]},""Domains"":{""Include"":[""ALL""]},""Use_Case"":""INDH, PROD""}",Partially Executable - Possible Underreporting,Draft,['SDTMIG'],"['CG0013', 'CG0351']","['CG0013', 'CG0351']"
CORE-000550,CG0351,"CG0013, TIG0298, CG0351",Variables not listed in the Model List of Allowed Variables for Observation Class should be in SUPPQUAL.,Trigger error when variable is not an allowed variable for an Observation Class,"SDTMIG, TIG","3.4, 3.2, 1.0","{""Classes"":{""Include"":[""ALL""]},""Domains"":{""Include"":[""ALL""]},""Use_Case"":""INDH, PROD""}",Partially Executable - Possible Underreporting,Published,"['SDTMIG', 'TIG']","['CG0013', 'TIG0298', 'CG0351']","['CG0013', 'CG0351']"
CORE-000226,CG0352,CG0352,'--DTHREL must never be used in SDTM-based data for human clinical trials,Verifying presence of SEND variable --DTHREL,SDTMIG,"3.4, 3.2, 3.3","{""Classes"":{""Include"":[""ALL""]},""Domains"":{""Include"":[""ALL""]}}",Fully Executable,Published,['SDTMIG'],['CG0352'],['CG0352']
CORE-000242,CG0353,"CG0353, TIG0518",'--EXCLFL must never be used in SDTM-based human trials,Raise an error when --EXCLFL is present in dataset.,"SDTMIG, TIG","3.4, 3.2, 3.3, 1.0","{""Classes"":{""Include"":[""ALL""]},""Domains"":{""Include"":[""ALL""]},""Use_Case"":""INDH, PROD""}",Fully Executable,Published,"['SDTMIG', 'TIG']","['CG0353', 'TIG0518']",['CG0353']
CORE-000243,CG0354,"CG0354, TIG0519",'--REASEX must never be used in SDTM-based human clinical trials,Raise an error when --REASEX is present in dataset.,"SDTMIG, TIG","3.4, 3.2, 3.3, 1.0","{""Classes"":{""Include"":[""ALL""]},""Domains"":{""Include"":[""ALL""]},""Use_Case"":""INDH, PROD""}",Fully Executable,Published,"['SDTMIG', 'TIG']","['CG0354', 'TIG0519']",['CG0354']
CORE-000244,CG0355,"CG0355, TIG0520",'--DETECT must never be used in SDTM-based human trials,Raise an error when --DETECT is present in dataset.,"SDTMIG, TIG","3.4, 3.2, 3.3, 1.0","{""Classes"":{""Include"":[""ALL""]},""Domains"":{""Include"":[""ALL""]},""Use_Case"":""INDH, PROD""}",Fully Executable,Published,"['SDTMIG', 'TIG']","['CG0355', 'TIG0520']",['CG0355']
CORE-000174,CG0356,CG0356,SPECIES is present in DM dataset.,Verify variable SPECIES does not exist in DM dataset,SDTMIG,"3.4, 3.2, 3.3","{""Classes"":{""Include"":[""SPECIAL PURPOSE""]},""Domains"":{""Include"":[""DM""]}}",Fully Executable,Published,['SDTMIG'],['CG0356'],['CG0356']
CORE-000175,CG0357,CG0357,STRAIN is present in DM dataset.,Verify variable STRAIN does not exist in DM dataset,SDTMIG,"3.4, 3.2, 3.3","{""Classes"":{""Include"":[""SPECIAL PURPOSE""]},""Domains"":{""Include"":[""DM""]}}",Fully Executable,Published,['SDTMIG'],['CG0357'],['CG0357']
CORE-000176,CG0358,CG0358,SBSTRAIN is present in DM dataset.,Verify variable SBSTRAIN does not exist in DM dataset,SDTMIG,"3.4, 3.2, 3.3","{""Classes"":{""Include"":[""SPECIAL PURPOSE""]},""Domains"":{""Include"":[""DM""]}}",Fully Executable,Published,['SDTMIG'],['CG0358'],['CG0358']
CORE-000594,CG0359,"CG0359, SEND29, TIG0524, TIG0205",Variable label is not in title case.,Raise an error when a variable label is not in title case,"SDTMIG, SENDIG, SENDIG-DART, SENDIG-GENETOX, TIG","3.4, 3.2, 3.3, 3.0, 3.1, 3.1.1, 1.1, 1.2, 1.0","{""Classes"":{""Include"":[""ALL""]},""Domains"":{""Include"":[""ALL""]},""Use_Case"":""INDH, PROD, NONCLIN""}",Fully Executable,Published,"['SDTMIG', 'SENDIG', 'SENDIG-DART', 'SENDIG-GENETOX', 'TIG']","['CG0359', 'SEND29', 'TIG0524', 'TIG0205']",['CG0359']
CORE-000229,CG0361,CG0361,POOLID must be null when USUBJID is populated,"Verify that When USUBJID is populated, POOLID is not populated",SDTMIG,"3.4, 3.2, 3.3","{""Classes"":{""Include"":[""SPECIAL PURPOSE""]},""Domains"":{""Include"":[""RELSUB""]}}",Fully Executable,Published,['SDTMIG'],['CG0361'],['CG0361']
CORE-000230,CG0362,CG0362,USUBJID must be null when POOLID is populated,"Verify that when POOLID is populated, USUBJID is not populated",SDTMIG,"3.4, 3.2, 3.3","{""Classes"":{""Include"":[""ALL""]},""Domains"":{""Include"":[""RELSUB""]}}",Fully Executable,Published,['SDTMIG'],['CG0362'],['CG0362']
CORE-000231,CG0363,CG0363,RSUBJID when populated cannot equal USUBJID,"Verify that when RSUBJID populated, RSUBJID does not equal USUBJID",SDTMIG,"3.4, 3.2, 3.3","{""Classes"":{""Include"":[""ALL""]},""Domains"":{""Include"":[""RELSUB""]}}",Fully Executable,Published,['SDTMIG'],['CG0363'],['CG0363']
CORE-000232,CG0364,CG0364,"When RSUBJID is populated, RUSBJID cannot equal POOLID",Verify when RSUBJID is populated it does not equal POOLID,SDTMIG,"3.4, 3.2, 3.3","{""Classes"":{""Include"":[""RELATIONSHIP""]},""Domains"":{""Include"":[""RELSUB""]}}",Fully Executable,Published,['SDTMIG'],['CG0364'],['CG0364']
CORE-000233,CG0365,CG0365,RDEVID must be empty when RSUBJID is populated and RSUBJID must be empty when RDEVID is populated,Related Device Identifier (RDEVID) and Related Subject or Pool Identifier (RSUBJID) should not both be populated for the same record.,SDTMIG,"3.4, 3.2, 3.3","{""Classes"":{""Include"":[""ALL""]},""Domains"":{""Include"":[""AP--""]}}",Fully Executable,Published,['SDTMIG'],['CG0365'],['CG0365']
CORE-000234,CG0366,CG0366,RSUBJID must be missing when RDEVID is populated,Verify that RSUBJID is empty when RDEVID is populated,SDTMIG,"3.4, 3.2, 3.3","{""Classes"":{""Include"":[""ALL""]},""Domains"":{""Include"":[""AP--""]}}",Fully Executable,Published,['SDTMIG'],['CG0366'],['CG0366']
CORE-000235,CG0367,CG0367,RSUBJID must equal DM.USUBJID when RSUBJID is populated and RSUBJID does not equal POOLID,Verify that RSUBJID=DM.USUBJID when RSUBJID is populated and RSUBJID is not equal to POOLID,SDTMIG,"3.4, 3.2, 3.3","{""Classes"":{""Include"":[""ALL""]},""Domains"":{""Include"":[""AP--""]}}",Fully Executable,Published,['SDTMIG'],['CG0367'],['CG0367']
CORE-000581,CG0368,"CG0368, TIG0532, TRC1736a, TRC1736c",DM dataset is missing.,Raise an error when DM dataset is not present,"SDTMIG, TIG, SENDIG, SENDIG-GENETOX, SENDIG-DART, SENDIG-AR","3.4, 3.2, 3.3, 1.0, 3.0, 3.1, 3.1.1, 1.1, 1.2","{""Classes"":{""Include"":[""ALL""]},""Domains"":{""Include"":[""ALL""]},""Use_Case"":""INDH""}",Fully Executable,Published,"['SDTMIG', 'TIG', 'SENDIG', 'SENDIG-GENETOX', 'SENDIG-DART', 'SENDIG-AR']","['CG0368', 'TIG0532', 'TRC1736a', 'TRC1736c']",['CG0368']
CORE-000502,CG0369,"CG0369, TIG0533",RDOMAIN does not represent a dataset present in the study.,Raise an error when RDOMAIN is populated but the referenced RDOMAIN doesn't exist as a dataset in the present study,"SDTMIG, TIG","3.4, 3.2, 3.3, 1.0","{""Classes"":{""Include"":[""ALL""]},""Domains"":{""Include"":[""CO"",""RELREC"",""SUPP--""]},""Use_Case"":""INDH, PROD""}",Fully Executable,Published,"['SDTMIG', 'TIG']","['CG0369', 'TIG0533']",['CG0369']
CORE-000712,CG0370,"CG0370, TIG0534",Value for IDVAR in SUPP-- does not represent a variable present in the dataset referenced in RDOMAIN.,Part A - Raise and error when IDVAR in SUPP-- is not populated with a valid variable from the dataset referenced in RDOMAIN.,"SDTMIG, TIG","3.4, 3.2, 3.3, 1.0","{""Classes"":{""Include"":[""RELATIONSHIP""]},""Domains"":{""Include"":[""SUPP--""]},""Use_Case"":""INDH, PROD""}",Fully Executable,Published,"['SDTMIG', 'TIG']","['CG0370', 'TIG0534']",['CG0370']
CORE-000916,CG0370,"CG0370, TIG0534",Value for IDVAR in RELREC does not represent a variable present in the dataset referenced in RDOMAIN.,Part B - Raise and error when IDVAR in RELREC is not populated with a valid variable from the dataset referenced in RDOMAIN.,"SDTMIG, TIG","3.4, 3.2, 3.3, 1.0","{""Classes"":{""Include"":[""RELATIONSHIP""]},""Domains"":{""Include"":[""RELREC""]},""Use_Case"":""INDH, PROD""}",Fully Executable,Published,"['SDTMIG', 'TIG']","['CG0370', 'TIG0534']",['CG0370']
CORE-000953,CG0370,"CG0370, TIG0534",Value for IDVAR in CO does not represent a variable present in the dataset referenced in RDOMAIN.,Part C - Raise and error when IDVAR in CO is not populated with a valid variable from the dataset referenced in RDOMAIN.,"SDTMIG, TIG","3.4, 3.2, 3.3, 1.0","{""Classes"":{""Include"":[""SPECIAL PURPOSE""]},""Domains"":{""Include"":[""CO""]},""Use_Case"":""INDH, PROD""}",Fully Executable,Published,"['SDTMIG', 'TIG']","['CG0370', 'TIG0534']",['CG0370']
CORE-000206,CG0371,"CG0371, TIG0535, SEND121, TIG0058",IDVARVAL does not equal a value of the variable referenced by IDVAR in domain = RDOMAIN.,"When IDVAR is populated, IDVARVAL must equal a value of the variable referenced by IDVAR within the domain referenced by RDOMAIN","SDTMIG, TIG, SENDIG, SENDIG-DART, SENDIG-GENETOX","3.4, 3.2, 3.3, 1.0, 3.0, 3.1, 3.1.1, 1.1, 1.2","{""Classes"":{""Include"":[""SPECIAL PURPOSE"",""RELATIONSHIP""]},""Domains"":{""Include"":[""CO"",""SUPP--"",""RELREC""]},""Use_Case"":""NONCLIN, INDH, PROD""}",Fully Executable,Published,"['SDTMIG', 'TIG', 'SENDIG', 'SENDIG-DART', 'SENDIG-GENETOX']","['CG0371', 'TIG0535', 'SEND121', 'TIG0058']",['CG0371']
CORE-000220,CG0372,"CG0372, TIG0536","'--TESTCD > 8 chars or contains more than only letters, numbers, underscores, or starts with a number.","Part A - Raise an error when --TESTCD > 8 chars or contains more than only letters, numbers and underscores, or starts with a number.","SDTMIG, TIG","3.4, 3.3, 3.2, 1.0","{""Classes"":{""Include"":[""FINDINGS""]},""Domains"":{""Include"":[""ALL""]},""Use_Case"":""INDH, PROD""}",Fully Executable,Published,"['SDTMIG', 'TIG']","['CG0372', 'TIG0536']",['CG0372']
CORE-000541,CG0372,"CG0372, TIG0536","IETESTCD > 8 chars or contains more than only letters, numbers, underscores, or starts with a number.","Part B - Raise an error when IETESTCD > 8 chars or contains more than only letters, numbers and underscores, or starts with a number.","SDTMIG, TIG","3.4, 3.3, 3.2, 1.0","{""Classes"":{""Include"":[""TRIAL DESIGN""]},""Domains"":{""Include"":[""ALL""]},""Use_Case"":""INDH, PROD""}",Fully Executable,Published,"['SDTMIG', 'TIG']","['CG0372', 'TIG0536']",['CG0372']
CORE-000457,CG0373,"CG0373, TIG0537",SUPP--.RDOMAIN does not represent a dataset present in the study,Trigger error when SUPP--.RDOMAIN does not represent a dataset present in the study,"SDTMIG, TIG","3.4, 3.2, 3.3, 1.0","{""Classes"":{""Include"":[""RELATIONSHIP""]},""Domains"":{""Include"":[""SUPP--""]},""Use_Case"":""INDH, PROD""}",Fully Executable,Published,"['SDTMIG', 'TIG']","['CG0373', 'TIG0537']",['CG0373']
CORE-000384,CG0374,"CG0374, TIG0538",RELREC.RDOMAIN does not represent a dataset present in the study,RELREC.RDOMAIN must represent a dataset that is present in the study.,"SDTMIG, TIG","3.4, 3.2, 3.3, 1.0","{""Classes"":{""Include"":[""ALL""]},""Domains"":{""Include"":[""RELREC""]},""Use_Case"":""INDH, PROD""}",Fully Executable,Published,"['SDTMIG', 'TIG']","['CG0374', 'TIG0538']",['CG0374']
CDISC.SDTMIG.CG0375,CG0375,CG0375,TDANCVAR is not valid,Trigger error when TDANCVAR is not a date variable name in ADSL,SDTMIG,"3.4, 3.2, 3.3","{""Classes"":{""Include"":[""TRIAL DESIGN""]},""Domains"":{""Include"":[""TD""]}}",Fully Executable,Draft,['SDTMIG'],['CG0375'],['CG0375']
CORE-000779,CG0376,CG0376,TDSTOFF is not equal to zero or a positive value in ISO 8601 Duration format,TDSTOFF must be equal to 0 or a positive value in ISO 8601 Duration format,SDTMIG,"3.4, 3.2, 3.3","{""Classes"":{""Include"":[""TRIAL DESIGN""]},""Domains"":{""Include"":[""TD""]}}",Fully Executable,Published,['SDTMIG'],['CG0376'],['CG0376']
CDISC.SDTMIG.CG0377,CG0377,CG0377,'--LLT is not a valid MedDRA lowest level TERM.,Raise an error when --LLT is not a valid MedDRA lowest level TERM.,SDTMIG,"3.4, 3.3, 3.2","{""Classes"":{""Include"":[""EVENTS""]},""Domains"":{""Include"":[""AE"",""MH"",""CE""]}}",Fully Executable,Draft,['SDTMIG'],['CG0377'],['CG0377']
CDISC.SDTMIG.CG0378,CG0378,CG0378,'--LLTCD is not a valid MedDRA lowest level code.,Raise an error when --LLTCD is not a valid MedDRA lowest level code.,SDTMIG,"3.4, 3.3, 3.2","{""Classes"":{""Include"":[""EVENTS""]},""Domains"":{""Include"":[""AE"",""MH"",""CE""]}}",Fully Executable,Draft,['SDTMIG'],['CG0378'],['CG0378']
CDISC.SDTMIG.CG0379,CG0379,CG0379,'--DECOD  is not a valid MedDRA preferred TERM,Trigger error when --DECOD  is not a valid MedDRA preferred TERM,SDTMIG,"3.4, 3.2, 3.3","{""Classes"":{""Include"":[""EVENTS""]},""Domains"":{""Include"":[""AE""]}}",Fully Executable,Draft,['SDTMIG'],['CG0379'],['CG0379']
CDISC.SDTMIG.CG0380,CG0380,CG0380,'--PTCD  is not a valid MedDRA preferred term code,Trigger error when --PTCD  is not a valid MedDRA preferred term code,SDTMIG,"3.4, 3.2, 3.3","{""Classes"":{""Include"":[""EVENTS""]},""Domains"":{""Include"":[""AE"",""MH"",""CE""]}}",Fully Executable,Draft,['SDTMIG'],['CG0380'],['CG0380']
CDISC.SDTMIG.CG0381,CG0381,CG0381,'--HLT  is not a valid MedDRA high level TERM,Trigger error when --HLT  is not a valid MedDRA high level TERM,SDTMIG,"3.4, 3.2, 3.3","{""Classes"":{""Include"":[""EVENTS""]},""Domains"":{""Include"":[""AE"",""MH"",""CE""]}}",Fully Executable,Draft,['SDTMIG'],['CG0381'],['CG0381']
CDISC.SDTMIG.CG0382,CG0382,CG0382,'--HLTCD  is not a valid MedDRA high level TERM code,Trigger error when --HLTCD  is not a valid MedDRA high level TERM code,SDTMIG,"3.4, 3.2, 3.3","{""Classes"":{""Include"":[""EVENTS""]},""Domains"":{""Include"":[""AE"",""MH"",""CE""]}}",Fully Executable,Draft,['SDTMIG'],['CG0382'],['CG0382']
CDISC.SDTMIG.CG0383,CG0383,CG0383,'--HLGT  is not a valid MedDRA high level group TERM,Trigger error when --HLGT  is not a valid MedDRA high level group TERM,SDTMIG,"3.4, 3.2, 3.3","{""Classes"":{""Include"":[""EVENTS""]},""Domains"":{""Include"":[""AE"",""MH"",""CE""]}}",Fully Executable,Draft,['SDTMIG'],['CG0383'],['CG0383']
CDISC.SDTMIG.CG0384,CG0384,CG0384,'--HLGTCD  is not a valid MedDRA high level group TERM code,Trigger error when --HLGTCD  is not a valid MedDRA high level group TERM code,SDTMIG,"3.4, 3.2, 3.3","{""Classes"":{""Include"":[""EVENTS""]},""Domains"":{""Include"":[""AE"",""MH"",""CE""]}}",Fully Executable,Draft,['SDTMIG'],['CG0384'],['CG0384']
CDISC.SDTMIG.CG0385,CG0385,CG0385,'--BODSYS  is not a valid MedDRA system organ class,Trigger error when --BODSYS  is not a valid MedDRA system organ class,SDTMIG,"3.4, 3.2, 3.3","{""Classes"":{""Include"":[""EVENTS""]},""Domains"":{""Include"":[""AE"",""MH"",""CE""]}}",Fully Executable,Draft,['SDTMIG'],['CG0385'],['CG0385']
CDISC.SDTMIG.CG0386,CG0386,CG0386,'--BDSYCD is not a valid MedDRA system organ class code,Trigger error when --BDSYCD is not a valid MedDRA system organ class code,SDTMIG,"3.4, 3.2, 3.3","{""Classes"":{""Include"":[""EVENTS""]},""Domains"":{""Include"":[""AE"",""MH"",""CE""]}}",Fully Executable,Draft,['SDTMIG'],['CG0386'],['CG0386']
CORE-000087,CG0387,"CG0387, TIG0549","AESER is completed, but not equal to ""N"" or ""Y""",Raise an error when AESER is completed and value is not 'Y' or 'N',"SDTMIG, TIG","3.4, 3.3, 3.2, 1.0","{""Classes"":{""Include"":[""EVENTS""]},""Domains"":{""Include"":[""AE""]},""Use_Case"":""INDH""}",Fully Executable,Published,"['SDTMIG', 'TIG']","['CG0387', 'TIG0549']",['CG0387']
CORE-000123,CG0388,"CG0388, TIG0550","AESCAN is completed, but not equal to ""N"" or ""Y""",Raise an error when AESCAN is completed and value is not 'Y' or 'N',"SDTMIG, TIG","3.4, 3.3, 3.2, 1.0","{""Classes"":{""Include"":[""EVENTS""]},""Domains"":{""Include"":[""AE""]},""Use_Case"":""INDH""}",Fully Executable,Published,"['SDTMIG', 'TIG']","['CG0388', 'TIG0550']",['CG0388']
CORE-000124,CG0389,"CG0389, TIG0551","AESCONG is completed, but not equal to ""N"" or ""Y""",Raise an error when AESCONG is completed and value is not 'Y' or 'N',"SDTMIG, TIG","3.4, 3.3, 3.2, 1.0","{""Classes"":{""Include"":[""EVENTS""]},""Domains"":{""Include"":[""AE""]},""Use_Case"":""INDH""}",Fully Executable,Published,"['SDTMIG', 'TIG']","['CG0389', 'TIG0551']",['CG0389']
CORE-000125,CG0390,"CG0390, TIG0552","AESDISAB is completed, but not equal to ""N"" or ""Y""",Raise an error when AESDISAB is completed and value is not 'Y' or 'N',"SDTMIG, TIG","3.4, 3.3, 3.2, 1.0","{""Classes"":{""Include"":[""EVENTS""]},""Domains"":{""Include"":[""AE""]},""Use_Case"":""INDH""}",Fully Executable,Published,"['SDTMIG', 'TIG']","['CG0390', 'TIG0552']",['CG0390']
CORE-000126,CG0391,"CG0391, TIG0553","AESDTH is completed, but not equal to ""N"" or ""Y""",Raise an error when AESDTH is completed and value is not 'Y' or 'N',"SDTMIG, TIG","3.4, 3.3, 3.2, 1.0","{""Classes"":{""Include"":[""EVENTS""]},""Domains"":{""Include"":[""AE""]},""Use_Case"":""INDH""}",Fully Executable,Published,"['SDTMIG', 'TIG']","['CG0391', 'TIG0553']",['CG0391']
CORE-000127,CG0392,"CG0392, TIG0554","AESHOSP is completed, but not equal to ""N"" or ""Y""",Raise an error when AESHOSP is completed and value is not 'Y' or 'N',"SDTMIG, TIG","3.4, 3.3, 3.2, 1.0","{""Classes"":{""Include"":[""EVENTS""]},""Domains"":{""Include"":[""AE""]},""Use_Case"":""INDH""}",Fully Executable,Published,"['SDTMIG', 'TIG']","['CG0392', 'TIG0554']",['CG0392']
CORE-000128,CG0393,"CG0393, TIG0555","AESLIFE is completed, but not equal to ""N"" or ""Y""",Raise an error when AESLIFE is completed and value is not 'Y' or 'N',"SDTMIG, TIG","3.4, 3.3, 3.2, 1.0","{""Classes"":{""Include"":[""EVENTS""]},""Domains"":{""Include"":[""AE""]},""Use_Case"":""INDH""}",Fully Executable,Published,"['SDTMIG', 'TIG']","['CG0393', 'TIG0555']",['CG0393']
CORE-000129,CG0394,"CG0394, TIG0556","AESOD is completed, but not equal to ""N"" or ""Y""",Raise an error when AESOD is completed and value is not 'Y' or 'N',"SDTMIG, TIG","3.4, 3.3, 3.2, 1.0","{""Classes"":{""Include"":[""EVENTS""]},""Domains"":{""Include"":[""AE""]},""Use_Case"":""INDH""}",Fully Executable,Published,"['SDTMIG', 'TIG']","['CG0394', 'TIG0556']",['CG0394']
CORE-000130,CG0395,"CG0395, TIG0557","AESMIE is completed, but not equal to ""N"" or ""Y""",Raise an error when AESMIE is completed and value is not 'Y' or 'N',"SDTMIG, TIG","3.4, 3.3, 3.2, 1.0","{""Classes"":{""Include"":[""EVENTS""]},""Domains"":{""Include"":[""AE""]},""Use_Case"":""INDH""}",Fully Executable,Published,"['SDTMIG', 'TIG']","['CG0395', 'TIG0557']",['CG0395']
CORE-000131,CG0396,"CG0396, TIG0558","AECONTRT is completed, but not equal to ""N"" or ""Y""",Raise an error when AECONTRT is completed and value is not 'Y' or 'N',"SDTMIG, TIG","3.4, 3.3, 3.2, 1.0","{""Classes"":{""Include"":[""EVENTS""]},""Domains"":{""Include"":[""AE""]},""Use_Case"":""INDH""}",Fully Executable,Published,"['SDTMIG', 'TIG']","['CG0396', 'TIG0558']",['CG0396']
CORE-000021,CG0397,"CG0397, TIG0559",'--STRESC should not be blank when either --ORRES is provided or --DRVFL = 'Y' .,Raise an error when the value for --STRESC is null.,"SDTMIG, TIG","3.4, 3.2, 3.3, 1.0","{""Classes"":{""Include"":[""FINDINGS""]},""Domains"":{""Include"":[""ALL""]},""Use_Case"":""INDH, PROD""}",Fully Executable,Published,"['SDTMIG', 'TIG']","['CG0397', 'TIG0559']",['CG0397']
CORE-000586,CG0398,CG0398,Multiple records exist within the same EPOCH for a subject when DSCAT = DISPOSITION EVENT,Raise an error when DSCAT = DISPOSITION EVENT and there is more than one record per subject for an EPOCH,SDTMIG,3.2,"{""Classes"":{""Include"":[""EVENTS""]},""Domains"":{""Include"":[""DS""]}}",Fully Executable,Published,['SDTMIG'],['CG0398'],['CG0398']
CORE-000205,CG0399,CG0399,'--ULOQ is not expressed using the units in --STRESU,Trigger error when --ULOQ is not expressed using the units in --STRESU,SDTMIG,"3.4, 3.2, 3.3","{""Classes"":{""Include"":[""FINDINGS""]},""Domains"":{""Include"":[""ALL""]}}",Not Executable,Draft,['SDTMIG'],['CG0399'],['CG0399']
CDISC.SDTMIG.CG0400,CG0400,CG0400,'--LOINC is not a valid code in the version of the LOINC dictionary specified in define.xml,Trigger error when --LOINC is not a valid code in the version of the LOINC dictionary specified in define.xml,SDTMIG,"3.4, 3.2, 3.3","{""Classes"":{""Include"":[""FINDINGS""]},""Domains"":{""Include"":[""ALL""]}}",Fully Executable,Draft,['SDTMIG'],['CG0400'],['CG0400']
CORE-000118,CG0404,"CG0404, TIG0562","'--STAT is not present in dataset when --PRESP is equal to ""Y"" and --OCCUR is blank",Raise an error when --PRESP is equal to 'Y' and --OCCUR is empty and --STAT is not present in dataset.,"SDTMIG, TIG","3.4, 3.2, 3.3, 1.0","{""Classes"":{""Include"":[""EVENTS"",""INTERVENTIONS""]},""Domains"":{""Exclude"":[""DS"",""DV"",""EX""]},""Use_Case"":""INDH, PROD""}",Fully Executable,Published,"['SDTMIG', 'TIG']","['CG0404', 'TIG0562']",['CG0404']
CORE-000199,CG0406,"CG0406, SEND64, TIG0563",Value length of --TEST > 40.,Raise an error when length of --TEST > 40.,"SDTMIG, SENDIG, SENDIG-DART, SENDIG-GENETOX, TIG","3.4, 3.3, 3.2, 3.0, 3.1, 3.1.1, 1.1, 1.2, 1.0","{""Classes"":{""Include"":[""FINDINGS""]},""Domains"":{""Exclude"":[""IE""]},""Use_Case"":""INDH, PROD""}",Fully Executable,Published,"['SDTMIG', 'SENDIG', 'SENDIG-DART', 'SENDIG-GENETOX', 'TIG']","['CG0406', 'SEND64', 'TIG0563']",['CG0406']
CORE-000739,CG0407,CG0407,EX is not present in study when study includes protocol-specified study treatment,Trigger error when study includes protocol-specified study treatment and EX is not present,SDTMIG,"3.4, 3.2, 3.3","{""Classes"":{""Include"":[""ALL""]},""Domains"":{""Include"":[""ALL""]}}",Fully Executable,Published,['SDTMIG'],['CG0407'],['CG0407']
CORE-000579,CG0408,CG0408,Dataset has no record.,Raise an error when a dataset has no records.,SDTMIG,"3.4, 3.2, 3.3","{""Classes"":{""Include"":[""ALL""]},""Domains"":{""Include"":[""ALL""]}}",Fully Executable,Published,['SDTMIG'],['CG0408'],['CG0408']
CORE-000172,CG0409,"CG0409, SEND249.1, TIG0168, TIG0565",STUDYID is not equal to DM.STUDYID,Raise an error when STUDYID is not equal to DM.STUDYID. The STUDYID in all domains must be the same in all records across the study.,"SDTMIG, SENDIG, SENDIG-DART, SENDIG-GENETOX, TIG","3.4, 3.3, 3.2, 3.1, 3.1.1, 1.1, 1.2, 1.0","{""Classes"":{""Include"":[""ALL""]},""Domains"":{""Include"":[""ALL""]},""Use_Case"":""INDH, NONCLIN""}",Fully Executable,Published,"['SDTMIG', 'SENDIG', 'SENDIG-DART', 'SENDIG-GENETOX', 'TIG']","['CG0409', 'SEND249.1', 'TIG0168', 'TIG0565']",['CG0409']
CORE-000204,CG0410,"CG0410, TIG0566",Scheduled or Contingent visit is not unique within subject,"When VISITNUM is present in TV.VISITNUM, SV.VISITNUM must be unique within subject","SDTMIG, TIG","3.4, 3.2, 3.3, 1.0","{""Classes"":{""Include"":[""ALL""]},""Domains"":{""Include"":[""SV""]},""Use_Case"":""INDH""}",Fully Executable,Published,"['SDTMIG', 'TIG']","['CG0410', 'TIG0566']",['CG0410']
CORE-000203,CG0411,"CG0411, TIG0567","The combination of IDVAR, IDVARVAL, and QNAM is not unique per parent subject record","Trigger error when the combination of IDVAR, IDVARVAL, and QNAM is not unique per parent subject record","SDTMIG, TIG","3.4, 3.2, 3.3, 1.0","{""Classes"":{""Include"":[""ALL""]},""Domains"":{""Include"":[""SUPP--""]},""Use_Case"":""INDH, PROD""}",Fully Executable,Published,"['SDTMIG', 'TIG']","['CG0411', 'TIG0567']",['CG0411']
CORE-000515,CG0412,CG0412,"DM.ACTARMCD does not equal ""SCRNFAIL"", ""NOTASSGN"" or ""NOTTRT"" but there are no DS records for the same subject","Raise an error when DM.ACTARMCD does not equal ""SCRNFAIL"", ""NOTASSGN"" or ""NOTTRT"", and there are no DS records for the same subject",SDTMIG,3.2,"{""Classes"":{""Include"":[""ALL""]},""Domains"":{""Include"":[""DM""]}}",Fully Executable,Published,['SDTMIG'],['CG0412'],['CG0412']
CORE-000598,CG0413,"CG0413, TIG0568, SEND1, TIG0037",Dataset name does not begin with DOMAIN value,The dataset name must begin with the DOMAIN value.,"SDTMIG, TIG, SENDIG, SENDIG-DART, SENDIG-GENETOX","3.4, 3.2, 3.3, 1.0, 3.0, 3.1, 3.1.1, 1.1, 1.2","{""Classes"":{""Include"":[""ALL""]},""Domains"":{""Exclude"":[""SUPP--"",""RELREC"",""RELREF"",""POOLDEF""]},""Use_Case"":""INDH, PROD, NONCLIN""}",Fully Executable,Published,"['SDTMIG', 'TIG', 'SENDIG', 'SENDIG-DART', 'SENDIG-GENETOX']","['CG0413', 'TIG0568', 'SEND1', 'TIG0037']",['CG0413']
CORE-000173,CG0414,"CG0414, TIG0569",ETCD is not equal to 'UNPLAN' and not equal to TE.ETCD,Raise an error when ETCD is not equal to 'UNPLAN' and not equal to TE.ETCD,"SDTMIG, TIG","3.4, 3.3, 3.2, 1.0","{""Classes"":{""Include"":[""SPECIAL PURPOSE"",""TRIAL DESIGN""]},""Domains"":{""Include"":[""SE"",""TA""]},""Use_Case"":""INDH""}",Fully Executable,Published,"['SDTMIG', 'TIG']","['CG0414', 'TIG0569']",['CG0414']
CORE-000222,CG0416,"CG0416, TIG0571",QLABEL > 40 chars.,Raise an error when QLABEL > 40 chars.,"SDTMIG, TIG","3.4, 3.3, 3.2, 1.0","{""Classes"":{""Include"":[""RELATIONSHIP""]},""Domains"":{""Include"":[""SUPP--""]},""Use_Case"":""INDH, PROD""}",Fully Executable,Published,"['SDTMIG', 'TIG']","['CG0416', 'TIG0571']",['CG0416']
CORE-000221,CG0417,"CG0417, TIG0572","QNAM > 8 chars or contains letters that are in not in uppercase, more than only letters, numbers, underscores, or starts with a number.","Raise an error when QNAM > 8 chars or contains more than only letters in uppercase, numbers and underscores, or starts with a number.","SDTMIG, TIG","3.4, 3.3, 3.2, 1.0","{""Classes"":{""Include"":[""RELATIONSHIP""]},""Domains"":{""Include"":[""SUPP--""]},""Use_Case"":""INDH, PROD""}",Fully Executable,Published,"['SDTMIG', 'TIG']","['CG0417', 'TIG0572']",['CG0417']
CDISC.SDTMIG.CG0418,CG0418,CG0418,,,SDTMIG,"3.2, 3.3, 3.4","{""Classes"":{""Include"":[""ALL""]},""Domains"":{""Include"":[""ALL""]}}",Fully Executable,Draft,['SDTMIG'],['CG0418'],['CG0418']
CORE-000202,CG0419,"CG0419, TIG0574",RELTYPE is populated when IDVAR is populated with a 'SEQ' value.,"When IDVAR is populated with a --SEQ value, RELTYPE must be null.","SDTMIG, TIG","3.4, 3.2, 3.3, 1.0","{""Classes"":{""Include"":[""RELATIONSHIP""]},""Domains"":{""Include"":[""RELREC""]},""Use_Case"":""INDH, PROD""}",Fully Executable,Published,"['SDTMIG', 'TIG']","['CG0419', 'TIG0574']",['CG0419']
CORE-000240,CG0420,"CG0420, TIG0575","'--STRF is populated when --OCCUR = ""N""","When --OCCUR = 'N', --STRF must not be populated","SDTMIG, TIG","3.4, 3.2, 3.3, 1.0","{""Classes"":{""Include"":[""INTERVENTIONS"",""EVENTS""]},""Domains"":{""Include"":[""ALL""]},""Use_Case"":""INDH, PROD""}",Fully Executable,Published,"['SDTMIG', 'TIG']","['CG0420', 'TIG0575']",['CG0420']
CORE-000241,CG0421,"CG0421, TIG0576","'--ENRF is populated when --OCCUR = ""N""","When --OCCUR = 'N', --ENRF must not be populated","SDTMIG, TIG","3.4, 3.2, 3.3, 1.0","{""Classes"":{""Include"":[""INTERVENTIONS"",""EVENTS""]},""Domains"":{""Include"":[""ALL""]},""Use_Case"":""INDH, PROD""}",Fully Executable,Published,"['SDTMIG', 'TIG']","['CG0421', 'TIG0576']",['CG0421']
CORE-000099,CG0422,"CG0422, TIG0577","Value for --STAT is populated, when --ORRES is populated",Raise an error when both --ORRES and --STAT values are populated,"SDTMIG, TIG","3.4, 3.2, 3.3, 1.0","{""Classes"":{""Include"":[""FINDINGS""]},""Domains"":{""Include"":[""ALL""]},""Use_Case"":""INDH, PROD""}",Fully Executable,Published,"['SDTMIG', 'TIG']","['CG0422', 'TIG0577']",['CG0422']
CORE-000100,CG0423,"CG0423, TIG0578","Missing --TRTV value, when --VAMT value is populated.","Raise an error when --VAMT is not empty, but --TRTV is empty.","SDTMIG, TIG","3.4, 3.2, 3.3, 1.0","{""Classes"":{""Include"":[""INTERVENTIONS""]},""Domains"":{""Include"":[""ALL""]},""Use_Case"":""INDH""}",Fully Executable,Published,"['SDTMIG', 'TIG']","['CG0423', 'TIG0578']",['CG0423']
CDISC.SDTMIG.CG0425,CG0425,CG0425,'--STRESU is null when --STRESC ^= null and units are applicable for the result,Trigger error if --STRESU is null when --STRESC ^= null and units are applicable for the result,SDTMIG,"3.4, 3.2, 3.3","{""Classes"":{""Include"":[""FINDINGS""]},""Domains"":{""Include"":[""ALL""]}}",Not Executable,Draft,['SDTMIG'],['CG0425'],['CG0425']
CORE-000133,CG0426,"CG0426, TIG0580","Missing value for --STRESC, when --STRESU is provided","When --STRESU is populated, --STRESC must also be populated. Please note that this rule, as executed, cannot check if --STRESC is populated with the standardized unit.","SDTMIG, TIG","3.4, 3.2, 3.3, 1.0","{""Classes"":{""Include"":[""FINDINGS""]},""Domains"":{""Include"":[""ALL""]},""Use_Case"":""INDH, PROD""}",Fully Executable,Published,"['SDTMIG', 'TIG']","['CG0426', 'TIG0580']",['CG0426']
CORE-000101,CG0427,"CG0427, TIG0581","Missing --STRESC value, when --RESCAT value is populated.","Raise an error when --RESCAT is not empty, but --STRESC is empty","SDTMIG, TIG","3.4, 3.2, 3.3, 1.0","{""Classes"":{""Include"":[""FINDINGS""]},""Domains"":{""Include"":[""ALL""]},""Use_Case"":""INDH, PROD""}",Fully Executable,Published,"['SDTMIG', 'TIG']","['CG0427', 'TIG0581']",['CG0427']
CORE-000102,CG0428,"CG0428, TIG0582",'--TOXGR should not be null when --TOX is populated.,"Raise an error when --TOX is not empty, but --TOXGR is empty.","SDTMIG, TIG","3.4, 3.2, 3.3, 1.0","{""Classes"":{""Include"":[""EVENTS"",""FINDINGS""]},""Domains"":{""Include"":[""AE"",""MH"",""CE"",""EG"",""LB"",""PC"",""PP""]},""Use_Case"":""INDH""}",Fully Executable,Published,"['SDTMIG', 'TIG']","['CG0428', 'TIG0582']",['CG0428']
CORE-000103,CG0429,"CG0429, TIG0583",'--CAT should not be null when --SCAT is populated,"Part A - Raise an error when --SCAT is not empty, but --CAT is empty.","SDTMIG, TIG","3.4, 3.2, 3.3, 1.0","{""Classes"":{""Include"":[""ALL""]},""Domains"":{""Include"":[""ALL""]},""Use_Case"":""INDH, PROD""}",Fully Executable,Published,"['SDTMIG', 'TIG']","['CG0429', 'TIG0583']",['CG0429']
CORE-000785,CG0429,"CG0429, TIG0583",IECAT should not be null when IESCAT is populated,"Part B - Raise an error when IESCAT is not empty, but IECAT is empty.","SDTMIG, TIG","3.4, 3.2, 3.3, 1.0","{""Classes"":{""Include"":[""TRIAL DESIGN""]},""Domains"":{""Include"":[""TI""]},""Use_Case"":""INDH""}",Fully Executable,Published,"['SDTMIG', 'TIG']","['CG0429', 'TIG0583']",['CG0429']
CORE-000104,CG0430,"CG0430, TIG0584","'--SCAT exists in a dataset, but --CAT does not exist.","Part A - Raise an error when --SCAT exists in a dataset, but --CAT does not exist.","SDTMIG, TIG","3.4, 3.2, 3.3, 1.0","{""Classes"":{""Include"":[""ALL""]},""Domains"":{""Include"":[""ALL""]},""Use_Case"":""INDH, PROD""}",Fully Executable,Published,"['SDTMIG', 'TIG']","['CG0430', 'TIG0584']",['CG0430']
CORE-000786,CG0430,"CG0430, TIG0584","IESCAT exists in a dataset, but IECAT does not exist.","Part B - Raise an error when IESCAT exists in a dataset, but IECAT does not exist.","SDTMIG, TIG","3.4, 3.2, 3.3, 1.0","{""Classes"":{""Include"":[""TRIAL DESIGN""]},""Domains"":{""Include"":[""TI""]},""Use_Case"":""INDH""}",Fully Executable,Published,"['SDTMIG', 'TIG']","['CG0430', 'TIG0584']",['CG0430']
CDISC.SDTMIG.CG0431,CG0431,CG0431,"Variable is empty, where variable core status is expected and data is collected.","Raise an error when variable Core Status = Expected and data is collected, but variable is not present",SDTMIG,"3.4, 3.2, 3.3","{""Classes"":{""Include"":[""ALL""]},""Domains"":{""Include"":[""ALL""]}}",Fully Executable,Draft,['SDTMIG'],['CG0431'],['CG0431']
CORE-000452,CG0432,CG0432,"Missing value for AGEU, when AGE or AGETXT is provided","Raise an error when AGEU is empty, but AGE or AGETXT is not empty.",SDTMIG,"3.2, 3.3","{""Classes"":{""Include"":[""SPECIAL PURPOSE""]},""Domains"":{""Include"":[""DM""]}}",Fully Executable,Published,['SDTMIG'],['CG0432'],['CG0432']
CORE-000453,CG0433,CG0433,"Missing value for AGE, when AGEU is provided","Raise an error when AGE is empty, but AGEU is not empty.",SDTMIG,"3.2, 3.3","{""Classes"":{""Include"":[""SPECIAL PURPOSE""]},""Domains"":{""Include"":[""DM""]}}",Fully Executable,Published,['SDTMIG'],['CG0433'],['CG0433']
CORE-000122,CG0434,"CG0434, TIG0586","AGEU is completed, but both AGE and AGETXT are not completed.",Raise an error when AGEU is completed but both AGETXT and AGE are not completed.,"SDTMIG, TIG","3.4, 3.2, 3.3, 1.0","{""Classes"":{""Include"":[""SPECIAL PURPOSE""]},""Domains"":{""Include"":[""DM""]},""Use_Case"":""INDH""}",Fully Executable,Published,"['SDTMIG', 'TIG']","['CG0434', 'TIG0586']",['CG0434']
CORE-000007,CG0435,"CG0435, TIG0587, FB0606","DTHFL is not ""Y"", when DTHDTC is populated","When a DTHDTC is populated in DM domain, death flag is populated as Y in DM dataset for corresponding subject","SDTMIG, TIG","3.4, 3.2, 3.3, 1.0","{""Classes"":{""Include"":[""SPECIAL PURPOSE""]},""Domains"":{""Include"":[""DM""]},""Use_Case"":""INDH""}",Fully Executable,Published,"['SDTMIG', 'TIG']","['CG0435', 'TIG0587', 'FB0606']","['CG0435', 'FB0606']"
CDISC.SDTMIG.CG0436,CG0436,CG0436,'--SOC is not a valid MedDRA primary system organ class,Trigger error when --SOC is not a valid MedDRA primary system organ class,SDTMIG,"3.2, 3.3, 3.4","{""Classes"":{""Include"":[""EVENTS""]},""Domains"":{""Include"":[""AE"",""MH"",""CE""]}}",Fully Executable,Draft,['SDTMIG'],['CG0436'],['CG0436']
CDISC.SDTMIG.CG0437,CG0437,CG0437,'--SOCCD is not a valid MedDRA primary system organ class code,Trigger error when --SOCCD is not a valid MedDRA primary system organ class code,SDTMIG,"3.2, 3.3, 3.4","{""Classes"":{""Include"":[""EVENTS""]},""Domains"":{""Include"":[""AE"",""MH"",""CE""]}}",Fully Executable,Draft,['SDTMIG'],['CG0437'],['CG0437']
CORE-000730,CG0438,CG0438,TSVAL does not conform to ISO 8601,"When TSPARMCD is equal to AGEMIN and TSVAL is not null, TSVAL should conform to ISO 8601",SDTMIG,"3.2, 3.3","{""Classes"":{""Include"":[""TRIAL DESIGN""]},""Domains"":{""Include"":[""TS""]}}",Fully Executable,Published,['SDTMIG'],['CG0438'],['CG0438']
CORE-000731,CG0439,CG0439,TSVAL is not NULL and does not conform to ISO 8601 time period,"When TSPARMCD = LENGTH and TSVAL ^= NULL, TSVAL needs to conform to ISO 8601 time period",SDTMIG,"3.2, 3.3","{""Classes"":{""Include"":[""TRIAL DESIGN""]},""Domains"":{""Include"":[""TS""]}}",Fully Executable,Published,['SDTMIG'],['CG0439'],['CG0439']
CORE-000340,CG0440,CG0440,TSPARMCD = PLANSUB but the value provided in TSVAL is not a positive integer.,"Raise an error when TSPARMCD = ""PLANSUB"" and the value provided in TSVAL is not an integer greater than 0.",SDTMIG,"3.2, 3.3","{""Classes"":{""Include"":[""TRIAL DESIGN""]},""Domains"":{""Include"":[""TS""]}}",Fully Executable,Published,['SDTMIG'],['CG0440'],['CG0440']
CORE-000467,CG0441,CG0441,TSVAL is missing when TSPARMCD = STOPRULE.,Raise an error when TSPARMCD = STOPRULE and TSVAL is not completed.,SDTMIG,"3.2, 3.3","{""Classes"":{""Include"":[""TRIAL DESIGN""]},""Domains"":{""Include"":[""TS""]}}",Fully Executable,Published,['SDTMIG'],['CG0441'],['CG0441']
CDISC.SDTMIG.CG0437,CG0442,CG0442,TSVAL is not a valid preferred term from FDA Substance Registration System (SRS),TSVAL is a valid preferred term from FDA Substance Registration System (SRS),SDTMIG,"3.2, 3.3","{""Classes"":{""Include"":[""TRIAL DESIGN""]},""Domains"":{""Include"":[""TS""]}}",Fully Executable,Draft,['SDTMIG'],['CG0442'],['CG0442']
CDISC.SDTMIG.CG0443,CG0443,CG0443,,,SDTMIG,"3.2, 3.3","{""Classes"":{""Include"":[""TRIAL DESIGN""]},""Domains"":{""Include"":[""TS""]}}",Fully Executable,Draft,['SDTMIG'],['CG0443'],['CG0443']
CORE-000735,CG0444,CG0444,"Throw error when TSPARMCD is equal to COMPTRT, CURTRT, or TRT and TSVCDREF ^= UNII","When TSPARMCD is equal to COMPTRT, CURTRT or TRT, TSVCDREF should equal UNII",SDTMIG,"3.2, 3.3","{""Classes"":{""Include"":[""TRIAL DESIGN""]},""Domains"":{""Include"":[""TS""]}}",Fully Executable,Published,['SDTMIG'],['CG0444'],['CG0444']
CDISC.SDTMIG.CG0445,CG0445,CG0445,,,SDTMIG,"3.2, 3.3","{""Classes"":{""Include"":[""TRIAL DESIGN""]},""Domains"":{""Include"":[""TS""]}}",Fully Executable,Draft,['SDTMIG'],['CG0445'],['CG0445']
CDISC.SDTMIG.CG0446,CG0446,CG0446,,,SDTMIG,"3.2, 3.3","{""Classes"":{""Include"":[""TRIAL DESIGN""]},""Domains"":{""Include"":[""TS""]}}",Fully Executable,Draft,['SDTMIG'],['CG0446'],['CG0446']
CDISC.SDTMIG.CG0448,CG0448,CG0448,,,SDTMIG,"3.2, 3.3","{""Classes"":{""Include"":[""TRIAL DESIGN""]},""Domains"":{""Include"":[""TS""]}}",Fully Executable,Draft,['SDTMIG'],['CG0448'],['CG0448']
CDISC.SDTMIG.CG0449,CG0449,CG0449,,,SDTMIG,"3.2, 3.3","{""Classes"":{""Include"":[""TRIAL DESIGN""]},""Domains"":{""Include"":[""TS""]}}",Fully Executable,Draft,['SDTMIG'],['CG0449'],['CG0449']
CDISC.SDTMIG.CG0450,CG0450,CG0450,,,SDTMIG,"3.2, 3.3","{""Classes"":{""Include"":[""TRIAL DESIGN""]},""Domains"":{""Include"":[""TS""]}}",Fully Executable,Draft,['SDTMIG'],['CG0450'],['CG0450']
CDISC.SDTMIG.CG0451,CG0451,CG0451,,,SDTMIG,"3.2, 3.3","{""Classes"":{""Include"":[""TRIAL DESIGN""]},""Domains"":{""Include"":[""TS""]}}",Fully Executable,Draft,['SDTMIG'],['CG0451'],['CG0451']
CDISC.SDTMIG.CG0453,CG0453,CG0453,,,SDTMIG,"3.2, 3.3","{""Classes"":{""Include"":[""TRIAL DESIGN""]},""Domains"":{""Include"":[""TS""]}}",Fully Executable,Draft,['SDTMIG'],['CG0453'],['CG0453']
CDISC.SDTMIG.CG0454,CG0454,CG0454,,,SDTMIG,"3.2, 3.3","{""Classes"":{""Include"":[""TRIAL DESIGN""]},""Domains"":{""Include"":[""TS""]}}",Fully Executable,Draft,['SDTMIG'],['CG0454'],['CG0454']
CORE-000483,CG0455,CG0455,TSPARMCD = PCLAS but TSVCDREF does not equal 'MED-RT'.,Raise an error when TSPARMCD = PCLAS but TSVCDREF is not equal to 'MED-RT'.,SDTMIG,"3.2, 3.3","{""Classes"":{""Include"":[""TRIAL DESIGN""]},""Domains"":{""Include"":[""TS""]}}",Fully Executable,Published,['SDTMIG'],['CG0455'],['CG0455']
CORE-000339,CG0456,CG0456,TSPARMCD = FCNTRY but TSVCDREF is not equal to 'ISO 3166-1 alpha-3',Raise an error when TSPARMCD = FCNTRY and TSVCDREF is not equal to 'ISO 3166-1 alpha-3',SDTMIG,"3.2, 3.3","{""Classes"":{""Include"":[""TRIAL DESIGN""]},""Domains"":{""Include"":[""TS""]}}",Fully Executable,Published,['SDTMIG'],['CG0456'],['CG0456']
CORE-000338,CG0457,CG0457,TSPARMCD = ACTSUB but the value provided in TSVAL is not a positive integer.,"Raise an error when TSPARMCD = ""ACTSUB"" and the value provided in TSVAL is not an integer greater than 0.",SDTMIG,"3.2, 3.3","{""Classes"":{""Include"":[""TRIAL DESIGN""]},""Domains"":{""Include"":[""TS""]}}",Fully Executable,Published,['SDTMIG'],['CG0457'],['CG0457']
CORE-000564,CG0458,CG0458,TSPARMCD = INDIC or TSPARMCD = TDIGRP but TSVCDREF is not equal to 'SNOMED'.,Raise an error when TSPARMCD = INDIC or TSPARMCD = TDIGRP but TSVCDREF is not equal to 'SNOMED'.,SDTMIG,"3.2, 3.3","{""Classes"":{""Include"":[""TRIAL DESIGN""]},""Domains"":{""Include"":[""TS""]}}",Fully Executable,Published,['SDTMIG'],['CG0458'],['CG0458']
CORE-000041,CG0459,"CG0649, TIG0689, CG0459",TSVAL is not populated with an ISO 21090 null flavor or null flavor description but TSVALNF is populated.,Raise and error when TSVAL is not populated TSVAL is populated with values or synonyms of values in the ISO 21090 null flavor codelist (or other terms that can be represented as null flavors) but TSVALNF is completed.,"SDTMIG, TIG","3.4, 1.0, 3.2, 3.3","{""Classes"":{""Include"":[""TRIAL DESIGN""]},""Domains"":{""Include"":[""TS""]},""Use_Case"":""INDH""}",Fully Executable,Published,"['SDTMIG', 'TIG']","['CG0649', 'TIG0689', 'CG0459']","['CG0649', 'CG0459']"
CDISC.SDTMIG.CG0460,CG0460,CG0460,'--HLT is not on the path to MedDRA primary system organ class,Trigger error when --HLT is not on the path to MedDRA primary system organ class,SDTMIG,"3.4, 3.2, 3.3","{""Classes"":{""Include"":[""EVENTS""]},""Domains"":{""Include"":[""AE"",""MH"",""CE""]}}",Fully Executable,Draft,['SDTMIG'],['CG0460'],['CG0460']
CDISC.SDTMIG.CG0461,CG0461,CG0461,'--HLGT is not on the path to MedDRA primary system organ class,Trigger error when --HLGT is not on the path to MedDRA primary system organ class,SDTMIG,"3.4, 3.2, 3.3","{""Classes"":{""Include"":[""EVENTS""]},""Domains"":{""Include"":[""AE"",""CE"",""MH""]}}",Fully Executable,Draft,['SDTMIG'],['CG0461'],['CG0461']
