{
  "CORE-000001": {
    "positive": {
      "01": {
        "datasets_import_sql": "SUCCESS",
        "results_present_sql": true,
        "results_sql": [
          {
            "dataset": "ie.xpt",
            "domain": "IE",
            "execution_status": "success",
            "execution_message": null,
            "number_errors": 0,
            "errors": []
          },
          {
            "dataset": "se.xpt",
            "domain": "SE",
            "execution_status": "skipped",
            "execution_message": "Rule skipped - doesn't apply to class for rule id=CORE-000001, dataset=SE",
            "number_errors": 0,
            "errors": []
          }
        ],
        "dataset_import_old": "SUCCESS",
        "results_present_old": true,
        "results_old": [
          {
            "dataset": "ie.xpt",
            "domain": "IE",
            "execution_status": "success",
            "execution_message": null,
            "number_errors": 0,
            "errors": []
          },
          {
            "dataset": "se.xpt",
            "domain": "SE",
            "execution_status": "skipped",
            "execution_message": "Rule skipped - doesn't apply to domain for rule id=CORE-000001, dataset=SE",
            "number_errors": 0,
            "errors": []
          }
        ],
        "old_vs_sql": {
          "equal": true
        },
        "whitelisted": false,
        "sql_overall_result": "success",
        "old_overall_result": "success",
        "validated_results_folder_exists": false,
        "validation_file": "",
        "validation_file_validation": "",
        "old_result_validation": "invalid",
        "sql_results_validation": "invalid"
      }
    },
    "negative": {
      "01": {
        "datasets_import_sql": "SUCCESS",
        "results_present_sql": true,
        "results_sql": [
          {
            "dataset": "ie.xpt",
            "domain": "IE",
            "execution_status": "success",
            "execution_message": "IECAT equals 'INCLUSION', but IEORRES is not equal to 'N'.",
            "number_errors": 3,
            "errors": [
              {
                "row": 1,
                "SEQ": 1,
                "USUBJID": "CDISC015",
                "value": {
                  "IETESTCD": "INCL01",
                  "IECAT": "INCLUSION",
                  "IEORRES": "Y"
                }
              },
              {
                "row": 2,
                "SEQ": 1,
                "USUBJID": "CDISC016",
                "value": {
                  "IETESTCD": "INCL02",
                  "IECAT": "INCLUSION",
                  "IEORRES": null
                }
              },
              {
                "row": 3,
                "SEQ": 1,
                "USUBJID": "CDISC017",
                "value": {
                  "IETESTCD": "INCL03",
                  "IECAT": "INCLUSION",
                  "IEORRES": "Nope"
                }
              }
            ]
          }
        ],
        "dataset_import_old": "SUCCESS",
        "results_present_old": true,
        "results_old": [
          {
            "dataset": "ie.xpt",
            "domain": "IE",
            "execution_status": "success",
            "execution_message": "IECAT equals 'INCLUSION', but IEORRES is not equal to 'N'.",
            "number_errors": 3,
            "errors": [
              {
                "row": 1,
                "SEQ": 1,
                "USUBJID": "CDISC015",
                "value": {
                  "IECAT": "INCLUSION",
                  "IEORRES": "Y"
                }
              },
              {
                "row": 2,
                "SEQ": 1,
                "USUBJID": "CDISC016",
                "value": {
                  "IECAT": "INCLUSION",
                  "IEORRES": null
                }
              },
              {
                "row": 3,
                "SEQ": 1,
                "USUBJID": "CDISC017",
                "value": {
                  "IECAT": "INCLUSION",
                  "IEORRES": "Nope"
                }
              }
            ]
          }
        ],
        "old_vs_sql": {
          "dataset_mismatch": false,
          "execution_status_mismatch": false,
          "number_of_errors_mismatch": false,
          "diff": {
            "ie.xpt": {
              "values_changed": {
                "root[0]": {
                  "new_value": {
                    "row": 1,
                    "SEQ": 1,
                    "USUBJID": "CDISC015",
                    "value": {
                      "IETESTCD": "INCL01",
                      "IECAT": "INCLUSION",
                      "IEORRES": "Y"
                    }
                  },
                  "old_value": {
                    "row": 1,
                    "SEQ": 1,
                    "USUBJID": "CDISC015",
                    "value": {
                      "IECAT": "INCLUSION",
                      "IEORRES": "Y"
                    }
                  }
                },
                "root[1]": {
                  "new_value": {
                    "row": 2,
                    "SEQ": 1,
                    "USUBJID": "CDISC016",
                    "value": {
                      "IETESTCD": "INCL02",
                      "IECAT": "INCLUSION",
                      "IEORRES": null
                    }
                  },
                  "old_value": {
                    "row": 2,
                    "SEQ": 1,
                    "USUBJID": "CDISC016",
                    "value": {
                      "IECAT": "INCLUSION",
                      "IEORRES": null
                    }
                  }
                },
                "root[2]": {
                  "new_value": {
                    "row": 3,
                    "SEQ": 1,
                    "USUBJID": "CDISC017",
                    "value": {
                      "IETESTCD": "INCL03",
                      "IECAT": "INCLUSION",
                      "IEORRES": "Nope"
                    }
                  },
                  "old_value": {
                    "row": 3,
                    "SEQ": 1,
                    "USUBJID": "CDISC017",
                    "value": {
                      "IECAT": "INCLUSION",
                      "IEORRES": "Nope"
                    }
                  }
                }
              }
            }
          }
        },
        "whitelisted": false,
        "sql_overall_result": "success",
        "old_overall_result": "success",
        "validated_results_folder_exists": false,
        "validation_file": "",
        "validation_file_validation": "",
        "old_result_validation": "invalid",
        "sql_results_validation": "invalid"
      }
    }
  },
  "CORE-000002": {
    "positive": {
      "01": {
        "datasets_import_sql": "SUCCESS",
        "results_present_sql": true,
        "results_sql": [
          {
            "dataset": "se.xpt",
            "domain": "SE",
            "execution_status": "success",
            "execution_message": null,
            "number_errors": 0,
            "errors": []
          }
        ],
        "dataset_import_old": "SUCCESS",
        "results_present_old": true,
        "results_old": [
          {
            "dataset": "se.xpt",
            "domain": "SE",
            "execution_status": "success",
            "execution_message": null,
            "number_errors": 0,
            "errors": []
          }
        ],
        "old_vs_sql": {
          "equal": true
        },
        "whitelisted": false,
        "sql_overall_result": "success",
        "old_overall_result": "success",
        "validated_results_folder_exists": false,
        "validation_file": "",
        "validation_file_validation": "",
        "old_result_validation": "invalid",
        "sql_results_validation": "invalid"
      }
    },
    "negative": {
      "01": {
        "datasets_import_sql": "SUCCESS",
        "results_present_sql": true,
        "results_sql": [
          {
            "dataset": "se.xpt",
            "domain": "SE",
            "execution_status": "success",
            "execution_message": "SESTDTC should be populated.",
            "number_errors": 2,
            "errors": [
              {
                "row": 2,
                "SEQ": 2,
                "USUBJID": "1201001",
                "value": {
                  "SESTDTC": null
                }
              },
              {
                "row": 5,
                "SEQ": 2,
                "USUBJID": "1201002",
                "value": {
                  "SESTDTC": null
                }
              }
            ]
          }
        ],
        "dataset_import_old": "SUCCESS",
        "results_present_old": true,
        "results_old": [
          {
            "dataset": "se.xpt",
            "domain": "SE",
            "execution_status": "success",
            "execution_message": "SESTDTC should be populated.",
            "number_errors": 2,
            "errors": [
              {
                "row": 2,
                "SEQ": 2,
                "USUBJID": "1201001",
                "value": {
                  "SESTDTC": null
                }
              },
              {
                "row": 5,
                "SEQ": 2,
                "USUBJID": "1201002",
                "value": {
                  "SESTDTC": null
                }
              }
            ]
          }
        ],
        "old_vs_sql": {
          "equal": true
        },
        "whitelisted": false,
        "sql_overall_result": "success",
        "old_overall_result": "success",
        "validated_results_folder_exists": false,
        "validation_file": "",
        "validation_file_validation": "",
        "old_result_validation": "invalid",
        "sql_results_validation": "invalid"
      }
    }
  },
  "CORE-000003": {
    "positive": {
      "01": {
        "datasets_import_sql": "SUCCESS",
        "results_present_sql": true,
        "results_sql": [
          {
            "dataset": "tr.xpt",
            "domain": "TR",
            "execution_status": "success",
            "execution_message": null,
            "number_errors": 0,
            "errors": []
          }
        ],
        "dataset_import_old": "SUCCESS",
        "results_present_old": true,
        "results_old": [
          {
            "dataset": "tr.xpt",
            "domain": "TR",
            "execution_status": "success",
            "execution_message": null,
            "number_errors": 0,
            "errors": []
          }
        ],
        "old_vs_sql": {
          "equal": true
        },
        "whitelisted": false,
        "sql_overall_result": "success",
        "old_overall_result": "success",
        "validated_results_folder_exists": false,
        "validation_file": "",
        "validation_file_validation": "",
        "old_result_validation": "invalid",
        "sql_results_validation": "invalid"
      }
    },
    "negative": {
      "01": {
        "datasets_import_sql": "SUCCESS",
        "results_present_sql": true,
        "results_sql": [
          {
            "dataset": "tr.xpt",
            "domain": "TR",
            "execution_status": "success",
            "execution_message": "TRLOC should not be present in TR dataset.",
            "number_errors": 1,
            "errors": [
              {
                "row": null,
                "SEQ": null,
                "USUBJID": null,
                "value": {
                  "TRLOC": null
                }
              }
            ]
          }
        ],
        "dataset_import_old": "SUCCESS",
        "results_present_old": true,
        "results_old": [
          {
            "dataset": "tr.xpt",
            "domain": "TR",
            "execution_status": "success",
            "execution_message": "TRLOC should not be present in TR dataset.",
            "number_errors": 1,
            "errors": [
              {
                "row": null,
                "SEQ": null,
                "USUBJID": null,
                "value": {
                  "TRLOC": null
                }
              }
            ]
          }
        ],
        "old_vs_sql": {
          "equal": true
        },
        "whitelisted": false,
        "sql_overall_result": "success",
        "old_overall_result": "success",
        "validated_results_folder_exists": false,
        "validation_file": "",
        "validation_file_validation": "",
        "old_result_validation": "invalid",
        "sql_results_validation": "invalid"
      }
    }
  },
  "CORE-000004": {
    "positive": {
      "01": {
        "datasets_import_sql": "SUCCESS",
        "results_present_sql": true,
        "results_sql": [
          {
            "dataset": "ec.xpt",
            "domain": "EC",
            "execution_status": "success",
            "execution_message": null,
            "number_errors": 0,
            "errors": []
          }
        ],
        "dataset_import_old": "SUCCESS",
        "results_present_old": true,
        "results_old": [
          {
            "dataset": "ec.xpt",
            "domain": "EC",
            "execution_status": "success",
            "execution_message": null,
            "number_errors": 0,
            "errors": []
          }
        ],
        "old_vs_sql": {
          "equal": true
        },
        "whitelisted": false,
        "sql_overall_result": "success",
        "old_overall_result": "success",
        "validated_results_folder_exists": false,
        "validation_file": "",
        "validation_file_validation": "",
        "old_result_validation": "invalid",
        "sql_results_validation": "invalid"
      }
    },
    "negative": {
      "01": {
        "datasets_import_sql": "SUCCESS",
        "results_present_sql": true,
        "results_sql": [
          {
            "dataset": "ec.xpt",
            "domain": "EC",
            "execution_status": "success",
            "execution_message": "ECOCCUR indicates dose was not given, ECDOSE needs to be blank or greater than 0.",
            "number_errors": 4,
            "errors": [
              {
                "row": 11,
                "SEQ": 122,
                "USUBJID": "CDISC009",
                "value": {
                  "ECDOSE": 0.0,
                  "ECOCCUR": "N"
                }
              },
              {
                "row": 13,
                "SEQ": 124,
                "USUBJID": "CDISC009",
                "value": {
                  "ECDOSE": 0.0,
                  "ECOCCUR": "N"
                }
              },
              {
                "row": 14,
                "SEQ": 125,
                "USUBJID": "CDISC009",
                "value": {
                  "ECDOSE": 0.0,
                  "ECOCCUR": "N"
                }
              },
              {
                "row": 15,
                "SEQ": 126,
                "USUBJID": "CDISC009",
                "value": {
                  "ECDOSE": -10.0,
                  "ECOCCUR": "N"
                }
              }
            ]
          }
        ],
        "dataset_import_old": "SUCCESS",
        "results_present_old": true,
        "results_old": [
          {
            "dataset": "ec.xpt",
            "domain": "EC",
            "execution_status": "success",
            "execution_message": "ECOCCUR indicates dose was not given, ECDOSE needs to be blank or greater than 0.",
            "number_errors": 4,
            "errors": [
              {
                "row": 11,
                "SEQ": 122,
                "USUBJID": "CDISC009",
                "value": {
                  "ECDOSE": 0.0,
                  "ECOCCUR": "N"
                }
              },
              {
                "row": 13,
                "SEQ": 124,
                "USUBJID": "CDISC009",
                "value": {
                  "ECDOSE": 0.0,
                  "ECOCCUR": "N"
                }
              },
              {
                "row": 14,
                "SEQ": 125,
                "USUBJID": "CDISC009",
                "value": {
                  "ECDOSE": 0.0,
                  "ECOCCUR": "N"
                }
              },
              {
                "row": 15,
                "SEQ": 126,
                "USUBJID": "CDISC009",
                "value": {
                  "ECDOSE": -10.0,
                  "ECOCCUR": "N"
                }
              }
            ]
          }
        ],
        "old_vs_sql": {
          "equal": true
        },
        "whitelisted": false,
        "sql_overall_result": "success",
        "old_overall_result": "success",
        "validated_results_folder_exists": false,
        "validation_file": "",
        "validation_file_validation": "",
        "old_result_validation": "invalid",
        "sql_results_validation": "invalid"
      }
    }
  },
  "CORE-000005": {
    "positive": {
      "01": {
        "datasets_import_sql": "SUCCESS",
        "results_present_sql": true,
        "results_sql": [
          {
            "dataset": "ex.xpt",
            "domain": "EX",
            "execution_status": "success",
            "execution_message": null,
            "number_errors": 0,
            "errors": []
          }
        ],
        "dataset_import_old": "SUCCESS",
        "results_present_old": true,
        "results_old": [
          {
            "dataset": "ex.xpt",
            "domain": "EX",
            "execution_status": "success",
            "execution_message": null,
            "number_errors": 0,
            "errors": []
          }
        ],
        "old_vs_sql": {
          "equal": true
        },
        "whitelisted": false,
        "sql_overall_result": "success",
        "old_overall_result": "success",
        "validated_results_folder_exists": false,
        "validation_file": "",
        "validation_file_validation": "",
        "old_result_validation": "invalid",
        "sql_results_validation": "invalid"
      }
    },
    "negative": {
      "01": {
        "datasets_import_sql": "SUCCESS",
        "results_present_sql": true,
        "results_sql": [
          {
            "dataset": "ex.xpt",
            "domain": "EX",
            "execution_status": "success",
            "execution_message": "EXDOSE should be 0 when EXTRT = PLACEBO.",
            "number_errors": 3,
            "errors": [
              {
                "row": 6,
                "SEQ": 2,
                "USUBJID": "CDISC004",
                "value": {
                  "EXTRT": "PLACEBO",
                  "EXDOSE": 1.0
                }
              },
              {
                "row": 8,
                "SEQ": 4,
                "USUBJID": "CDISC004",
                "value": {
                  "EXTRT": "PLACEBO",
                  "EXDOSE": 12.0
                }
              },
              {
                "row": 9,
                "SEQ": 5,
                "USUBJID": "CDISC004",
                "value": {
                  "EXTRT": "PLACEBO",
                  "EXDOSE": null
                }
              }
            ]
          }
        ],
        "dataset_import_old": "SUCCESS",
        "results_present_old": true,
        "results_old": [
          {
            "dataset": "ex.xpt",
            "domain": "EX",
            "execution_status": "success",
            "execution_message": "EXDOSE should be 0 when EXTRT = PLACEBO.",
            "number_errors": 3,
            "errors": [
              {
                "row": 6,
                "SEQ": 2,
                "USUBJID": "CDISC004",
                "value": {
                  "EXDOSE": 1.0,
                  "EXTRT": "PLACEBO"
                }
              },
              {
                "row": 8,
                "SEQ": 4,
                "USUBJID": "CDISC004",
                "value": {
                  "EXDOSE": 12.0,
                  "EXTRT": "PLACEBO"
                }
              },
              {
                "row": 9,
                "SEQ": 5,
                "USUBJID": "CDISC004",
                "value": {
                  "EXDOSE": null,
                  "EXTRT": "PLACEBO"
                }
              }
            ]
          }
        ],
        "old_vs_sql": {
          "equal": true
        },
        "whitelisted": false,
        "sql_overall_result": "success",
        "old_overall_result": "success",
        "validated_results_folder_exists": false,
        "validation_file": "",
        "validation_file_validation": "",
        "old_result_validation": "invalid",
        "sql_results_validation": "invalid"
      }
    }
  },
  "CORE-000006": {
    "positive": {
      "01": {
        "datasets_import_sql": "SUCCESS",
        "results_present_sql": true,
        "results_sql": [
          {
            "dataset": "dm.xpt",
            "domain": "DM",
            "execution_status": "success",
            "execution_message": null,
            "number_errors": 0,
            "errors": []
          }
        ],
        "dataset_import_old": "SUCCESS",
        "results_present_old": true,
        "results_old": [
          {
            "dataset": "dm.xpt",
            "domain": "DM",
            "execution_status": "success",
            "execution_message": null,
            "number_errors": 0,
            "errors": []
          }
        ],
        "old_vs_sql": {
          "equal": true
        },
        "whitelisted": false,
        "sql_overall_result": "success",
        "old_overall_result": "success",
        "validated_results_folder_exists": false,
        "validation_file": "",
        "validation_file_validation": "",
        "old_result_validation": "invalid",
        "sql_results_validation": "invalid"
      }
    },
    "negative": {
      "01": {
        "datasets_import_sql": "SUCCESS",
        "results_present_sql": true,
        "results_sql": [
          {
            "dataset": "dm.xpt",
            "domain": "DM",
            "execution_status": "success",
            "execution_message": "DTHFL is not equal to 'Y' or empty.",
            "number_errors": 3,
            "errors": [
              {
                "row": 1,
                "SEQ": null,
                "USUBJID": "015246-099-0000-00000",
                "value": {
                  "DTHFL": "N"
                }
              },
              {
                "row": 2,
                "SEQ": null,
                "USUBJID": "015246-099-0000-00001",
                "value": {
                  "DTHFL": "U"
                }
              },
              {
                "row": 4,
                "SEQ": null,
                "USUBJID": "015246-099-0000-00003",
                "value": {
                  "DTHFL": "N"
                }
              }
            ]
          }
        ],
        "dataset_import_old": "SUCCESS",
        "results_present_old": true,
        "results_old": [
          {
            "dataset": "dm.xpt",
            "domain": "DM",
            "execution_status": "success",
            "execution_message": "DTHFL is not equal to 'Y' or empty.",
            "number_errors": 3,
            "errors": [
              {
                "row": 1,
                "SEQ": null,
                "USUBJID": "015246-099-0000-00000",
                "value": {
                  "DTHFL": "N"
                }
              },
              {
                "row": 2,
                "SEQ": null,
                "USUBJID": "015246-099-0000-00001",
                "value": {
                  "DTHFL": "U"
                }
              },
              {
                "row": 4,
                "SEQ": null,
                "USUBJID": "015246-099-0000-00003",
                "value": {
                  "DTHFL": "N"
                }
              }
            ]
          }
        ],
        "old_vs_sql": {
          "equal": true
        },
        "whitelisted": false,
        "sql_overall_result": "success",
        "old_overall_result": "success",
        "validated_results_folder_exists": false,
        "validation_file": "",
        "validation_file_validation": "",
        "old_result_validation": "invalid",
        "sql_results_validation": "invalid"
      }
    }
  },
  "CORE-000007": {
    "positive": {
      "01": {
        "datasets_import_sql": "SUCCESS",
        "results_present_sql": true,
        "results_sql": [
          {
            "dataset": "dm.xpt",
            "domain": "DM",
            "execution_status": "success",
            "execution_message": null,
            "number_errors": 0,
            "errors": []
          }
        ],
        "dataset_import_old": "SUCCESS",
        "results_present_old": true,
        "results_old": [
          {
            "dataset": "dm.xpt",
            "domain": "DM",
            "execution_status": "success",
            "execution_message": null,
            "number_errors": 0,
            "errors": []
          }
        ],
        "old_vs_sql": {
          "equal": true
        },
        "whitelisted": false,
        "sql_overall_result": "success",
        "old_overall_result": "success",
        "validated_results_folder_exists": false,
        "validation_file": "",
        "validation_file_validation": "",
        "old_result_validation": "invalid",
        "sql_results_validation": "invalid"
      }
    },
    "negative": {
      "01": {
        "datasets_import_sql": "SUCCESS",
        "results_present_sql": true,
        "results_sql": [
          {
            "dataset": "dm.xpt",
            "domain": "DM",
            "execution_status": "success",
            "execution_message": "DTHFL is not \"Y\", when DTHDTC is populated",
            "number_errors": 2,
            "errors": [
              {
                "row": 3,
                "SEQ": null,
                "USUBJID": "015246-099-0000-00002",
                "value": {
                  "DTHDTC": "2018-06-10",
                  "DTHFL": null
                }
              },
              {
                "row": 4,
                "SEQ": null,
                "USUBJID": "015246-099-0000-00003",
                "value": {
                  "DTHDTC": "2018-09-04",
                  "DTHFL": "N"
                }
              }
            ]
          }
        ],
        "dataset_import_old": "SUCCESS",
        "results_present_old": true,
        "results_old": [
          {
            "dataset": "dm.xpt",
            "domain": "DM",
            "execution_status": "success",
            "execution_message": "DTHFL is not \"Y\", when DTHDTC is populated",
            "number_errors": 2,
            "errors": [
              {
                "row": 3,
                "SEQ": null,
                "USUBJID": "015246-099-0000-00002",
                "value": {
                  "DTHDTC": "2018-06-10",
                  "DTHFL": null
                }
              },
              {
                "row": 4,
                "SEQ": null,
                "USUBJID": "015246-099-0000-00003",
                "value": {
                  "DTHDTC": "2018-09-04",
                  "DTHFL": "N"
                }
              }
            ]
          }
        ],
        "old_vs_sql": {
          "equal": true
        },
        "whitelisted": false,
        "sql_overall_result": "success",
        "old_overall_result": "success",
        "validated_results_folder_exists": false,
        "validation_file": "",
        "validation_file_validation": "",
        "old_result_validation": "invalid",
        "sql_results_validation": "invalid"
      }
    }
  },
  "CORE-000008": {
    "positive": {
      "01": {
        "datasets_import_sql": "SUCCESS",
        "results_present_sql": true,
        "results_sql": [
          {
            "dataset": "dm.xpt",
            "domain": "DM",
            "execution_status": "success",
            "execution_message": null,
            "number_errors": 0,
            "errors": []
          },
          {
            "dataset": "ss.xpt",
            "domain": "SS",
            "execution_status": "skipped",
            "execution_message": "Rule skipped - doesn't apply to class for rule id=CORE-000008, dataset=SS",
            "number_errors": 0,
            "errors": []
          }
        ],
        "dataset_import_old": "SUCCESS",
        "results_present_old": true,
        "results_old": [
          {
            "dataset": "dm.xpt",
            "domain": "DM",
            "execution_status": "execution_error",
            "execution_message": "rule execution error",
            "number_errors": 1,
            "errors": [
              {
                "error": "Column not found in data",
                "message": "SSSTRESC"
              }
            ]
          },
          {
            "dataset": "ss.xpt",
            "domain": "SS",
            "execution_status": "skipped",
            "execution_message": "Rule skipped - doesn't apply to domain for rule id=CORE-000008, dataset=SS",
            "number_errors": 0,
            "errors": []
          }
        ],
        "old_vs_sql": {
          "dataset_mismatch": false,
          "execution_status_mismatch": true,
          "number_of_errors_mismatch": false,
          "diff": {}
        },
        "whitelisted": false,
        "sql_overall_result": "success",
        "old_overall_result": "execution_error",
        "validated_results_folder_exists": false,
        "validation_file": "",
        "validation_file_validation": "",
        "old_result_validation": "invalid",
        "sql_results_validation": "invalid"
      }
    },
    "negative": {
      "01": {
        "datasets_import_sql": "SUCCESS",
        "results_present_sql": true,
        "results_sql": [
          {
            "dataset": "dm.xpt",
            "domain": "DM",
            "execution_status": "success",
            "execution_message": "DTHFL is not 'Y', when SSSTRESC equals 'DEAD'.",
            "number_errors": 2,
            "errors": [
              {
                "row": 1,
                "SEQ": null,
                "USUBJID": "015246-076-0003-00003",
                "value": {
                  "DTHFL": null,
                  "SSSTRESC": "DEAD"
                }
              },
              {
                "row": 2,
                "SEQ": null,
                "USUBJID": "015246-300-0004-00002",
                "value": {
                  "DTHFL": "N",
                  "SSSTRESC": "DEAD"
                }
              }
            ]
          },
          {
            "dataset": "ss.xpt",
            "domain": "SS",
            "execution_status": "skipped",
            "execution_message": "Rule skipped - doesn't apply to class for rule id=CORE-000008, dataset=SS",
            "number_errors": 0,
            "errors": []
          }
        ],
        "dataset_import_old": "SUCCESS",
        "results_present_old": true,
        "results_old": [
          {
            "dataset": "dm.xpt",
            "domain": "DM",
            "execution_status": "execution_error",
            "execution_message": "rule execution error",
            "number_errors": 1,
            "errors": [
              {
                "error": "Column not found in data",
                "message": "SSSTRESC"
              }
            ]
          },
          {
            "dataset": "ss.xpt",
            "domain": "SS",
            "execution_status": "skipped",
            "execution_message": "Rule skipped - doesn't apply to domain for rule id=CORE-000008, dataset=SS",
            "number_errors": 0,
            "errors": []
          }
        ],
        "old_vs_sql": {
          "dataset_mismatch": false,
          "execution_status_mismatch": true,
          "number_of_errors_mismatch": false,
          "diff": {}
        },
        "whitelisted": false,
        "sql_overall_result": "success",
        "old_overall_result": "execution_error",
        "validated_results_folder_exists": false,
        "validation_file": "",
        "validation_file_validation": "",
        "old_result_validation": "invalid",
        "sql_results_validation": "invalid"
      }
    }
  },
  "CORE-000009": {
    "positive": {
      "01": {
        "datasets_import_sql": "SUCCESS",
        "results_present_sql": true,
        "results_sql": [
          {
            "dataset": "se.xpt",
            "domain": "SE",
            "execution_status": "success",
            "execution_message": null,
            "number_errors": 0,
            "errors": []
          }
        ],
        "dataset_import_old": "SUCCESS",
        "results_present_old": true,
        "results_old": [
          {
            "dataset": "se.xpt",
            "domain": "SE",
            "execution_status": "success",
            "execution_message": null,
            "number_errors": 0,
            "errors": []
          }
        ],
        "old_vs_sql": {
          "equal": true
        },
        "whitelisted": false,
        "sql_overall_result": "success",
        "old_overall_result": "success",
        "validated_results_folder_exists": false,
        "validation_file": "",
        "validation_file_validation": "",
        "old_result_validation": "invalid",
        "sql_results_validation": "invalid"
      }
    },
    "negative": {
      "01": {
        "datasets_import_sql": "SUCCESS",
        "results_present_sql": true,
        "results_sql": [
          {
            "dataset": "se.xpt",
            "domain": "SE",
            "execution_status": "success",
            "execution_message": "ELEMENT variable has a non-null value when ETCD has a value of 'UNPLAN'",
            "number_errors": 1,
            "errors": [
              {
                "row": 5,
                "SEQ": 3,
                "USUBJID": "456",
                "value": {
                  "ETCD": "UNPLAN",
                  "ELEMENT": "Unplanned Drug B"
                }
              }
            ]
          }
        ],
        "dataset_import_old": "SUCCESS",
        "results_present_old": true,
        "results_old": [
          {
            "dataset": "se.xpt",
            "domain": "SE",
            "execution_status": "success",
            "execution_message": "ELEMENT variable has a non-null value when ETCD has a value of 'UNPLAN'",
            "number_errors": 1,
            "errors": [
              {
                "row": 5,
                "SEQ": 3,
                "USUBJID": "456",
                "value": {
                  "ETCD": "UNPLAN",
                  "ELEMENT": "Unplanned Drug B"
                }
              }
            ]
          }
        ],
        "old_vs_sql": {
          "equal": true
        },
        "whitelisted": false,
        "sql_overall_result": "success",
        "old_overall_result": "success",
        "validated_results_folder_exists": false,
        "validation_file": "",
        "validation_file_validation": "",
        "old_result_validation": "invalid",
        "sql_results_validation": "invalid"
      }
    }
  },
  "CORE-000010": {
    "positive": {
      "01": {
        "datasets_import_sql": "SUCCESS",
        "results_present_sql": true,
        "results_sql": [
          {
            "dataset": "dm.xpt",
            "domain": "DM",
            "execution_status": "success",
            "execution_message": null,
            "number_errors": 0,
            "errors": []
          },
          {
            "dataset": "ta.xpt",
            "domain": "TA",
            "execution_status": "success",
            "execution_message": null,
            "number_errors": 0,
            "errors": []
          }
        ],
        "dataset_import_old": "SUCCESS",
        "results_present_old": true,
        "results_old": [
          {
            "dataset": "dm.xpt",
            "domain": "DM",
            "execution_status": "success",
            "execution_message": null,
            "number_errors": 0,
            "errors": []
          },
          {
            "dataset": "ta.xpt",
            "domain": "TA",
            "execution_status": "success",
            "execution_message": null,
            "number_errors": 0,
            "errors": []
          }
        ],
        "old_vs_sql": {
          "equal": true
        },
        "whitelisted": false,
        "sql_overall_result": "success",
        "old_overall_result": "success",
        "validated_results_folder_exists": false,
        "validation_file": "",
        "validation_file_validation": "",
        "old_result_validation": "invalid",
        "sql_results_validation": "invalid"
      }
    },
    "negative": {
      "01": {
        "datasets_import_sql": "SUCCESS",
        "results_present_sql": true,
        "results_sql": [
          {
            "dataset": "dm.xpt",
            "domain": "DM",
            "execution_status": "success",
            "execution_message": "ARMCD value length should be <= 20.",
            "number_errors": 2,
            "errors": [
              {
                "row": 1,
                "SEQ": null,
                "USUBJID": "CDISC001",
                "value": {
                  "ARMCD": "ZANOMALINE_DOSE_54_mg"
                }
              },
              {
                "row": 2,
                "SEQ": null,
                "USUBJID": "CDISC003",
                "value": {
                  "ARMCD": "ZANOMALINE_HIGH_DOSE_81_mg"
                }
              }
            ]
          },
          {
            "dataset": "ta.xpt",
            "domain": "TA",
            "execution_status": "success",
            "execution_message": "ARMCD value length should be <= 20.",
            "number_errors": 3,
            "errors": [
              {
                "row": 1,
                "SEQ": null,
                "USUBJID": "None",
                "value": {
                  "ARMCD": "ZANOMALINE_LOW_DOSE_54_mg"
                }
              },
              {
                "row": 2,
                "SEQ": null,
                "USUBJID": "None",
                "value": {
                  "ARMCD": "ZANOMALINE_LOW_DOSE_54_mg"
                }
              },
              {
                "row": 3,
                "SEQ": null,
                "USUBJID": "None",
                "value": {
                  "ARMCD": "ZANOMALINE_DOSE_81_mg"
                }
              }
            ]
          }
        ],
        "dataset_import_old": "SUCCESS",
        "results_present_old": true,
        "results_old": [
          {
            "dataset": "dm.xpt",
            "domain": "DM",
            "execution_status": "success",
            "execution_message": "ARMCD value length should be <= 20.",
            "number_errors": 2,
            "errors": [
              {
                "row": 1,
                "SEQ": null,
                "USUBJID": "CDISC001",
                "value": {
                  "ARMCD": "ZANOMALINE_DOSE_54_mg"
                }
              },
              {
                "row": 2,
                "SEQ": null,
                "USUBJID": "CDISC003",
                "value": {
                  "ARMCD": "ZANOMALINE_HIGH_DOSE_81_mg"
                }
              }
            ]
          },
          {
            "dataset": "ta.xpt",
            "domain": "TA",
            "execution_status": "success",
            "execution_message": "ARMCD value length should be <= 20.",
            "number_errors": 3,
            "errors": [
              {
                "row": 1,
                "SEQ": null,
                "USUBJID": null,
                "value": {
                  "ARMCD": "ZANOMALINE_LOW_DOSE_54_mg"
                }
              },
              {
                "row": 2,
                "SEQ": null,
                "USUBJID": null,
                "value": {
                  "ARMCD": "ZANOMALINE_LOW_DOSE_54_mg"
                }
              },
              {
                "row": 3,
                "SEQ": null,
                "USUBJID": null,
                "value": {
                  "ARMCD": "ZANOMALINE_DOSE_81_mg"
                }
              }
            ]
          }
        ],
        "old_vs_sql": {
          "equal": true
        },
        "whitelisted": false,
        "sql_overall_result": "success",
        "old_overall_result": "success",
        "validated_results_folder_exists": false,
        "validation_file": "",
        "validation_file_validation": "",
        "old_result_validation": "invalid",
        "sql_results_validation": "invalid"
      }
    }
  },
  "CORE-000011": {
    "positive": {
      "01": {
        "datasets_import_sql": "SUCCESS",
        "results_present_sql": true,
        "results_sql": [
          {
            "dataset": "ie.xpt",
            "domain": "IE",
            "execution_status": "success",
            "execution_message": null,
            "number_errors": 0,
            "errors": []
          }
        ],
        "dataset_import_old": "SUCCESS",
        "results_present_old": true,
        "results_old": [
          {
            "dataset": "ie.xpt",
            "domain": "IE",
            "execution_status": "success",
            "execution_message": null,
            "number_errors": 0,
            "errors": []
          }
        ],
        "old_vs_sql": {
          "equal": true
        },
        "whitelisted": false,
        "sql_overall_result": "success",
        "old_overall_result": "success",
        "validated_results_folder_exists": false,
        "validation_file": "",
        "validation_file_validation": "",
        "old_result_validation": "invalid",
        "sql_results_validation": "invalid"
      }
    },
    "negative": {
      "01": {
        "datasets_import_sql": "SUCCESS",
        "results_present_sql": true,
        "results_sql": [
          {
            "dataset": "ie.xpt",
            "domain": "IE",
            "execution_status": "success",
            "execution_message": "IEORRES is not equal to 'Y' when IECAT equals 'EXCLUSION'.",
            "number_errors": 1,
            "errors": [
              {
                "row": 1,
                "SEQ": 1,
                "USUBJID": "CDISC015",
                "value": {
                  "IECAT": "EXCLUSION",
                  "IEORRES": "N"
                }
              }
            ]
          }
        ],
        "dataset_import_old": "SUCCESS",
        "results_present_old": true,
        "results_old": [
          {
            "dataset": "ie.xpt",
            "domain": "IE",
            "execution_status": "success",
            "execution_message": "IEORRES is not equal to 'Y' when IECAT equals 'EXCLUSION'.",
            "number_errors": 1,
            "errors": [
              {
                "row": 1,
                "SEQ": 1,
                "USUBJID": "CDISC015",
                "value": {
                  "IECAT": "EXCLUSION",
                  "IEORRES": "N"
                }
              }
            ]
          }
        ],
        "old_vs_sql": {
          "equal": true
        },
        "whitelisted": false,
        "sql_overall_result": "success",
        "old_overall_result": "success",
        "validated_results_folder_exists": false,
        "validation_file": "",
        "validation_file_validation": "",
        "old_result_validation": "invalid",
        "sql_results_validation": "invalid"
      }
    }
  },
  "CORE-000012": {
    "positive": {
      "01": {
        "datasets_import_sql": "SUCCESS",
        "results_present_sql": true,
        "results_sql": [
          {
            "dataset": "ae.xpt",
            "domain": "AE",
            "execution_status": "success",
            "execution_message": null,
            "number_errors": 0,
            "errors": []
          }
        ],
        "dataset_import_old": "SUCCESS",
        "results_present_old": true,
        "results_old": [
          {
            "dataset": "ae.xpt",
            "domain": "AE",
            "execution_status": "success",
            "execution_message": null,
            "number_errors": 0,
            "errors": []
          }
        ],
        "old_vs_sql": {
          "equal": true
        },
        "whitelisted": false,
        "sql_overall_result": "success",
        "old_overall_result": "success",
        "validated_results_folder_exists": false,
        "validation_file": "",
        "validation_file_validation": "",
        "old_result_validation": "invalid",
        "sql_results_validation": "invalid"
      }
    },
    "negative": {
      "01": {
        "datasets_import_sql": "SUCCESS",
        "results_present_sql": true,
        "results_sql": [
          {
            "dataset": "ae.xpt",
            "domain": "AE",
            "execution_status": "success",
            "execution_message": "AEOCCUR should not be present in AE dataset.",
            "number_errors": 1,
            "errors": [
              {
                "row": null,
                "SEQ": null,
                "USUBJID": null,
                "value": {
                  "AEOCCUR": "Y"
                }
              }
            ]
          }
        ],
        "dataset_import_old": "SUCCESS",
        "results_present_old": true,
        "results_old": [
          {
            "dataset": "ae.xpt",
            "domain": "AE",
            "execution_status": "success",
            "execution_message": "AEOCCUR should not be present in AE dataset.",
            "number_errors": 1,
            "errors": [
              {
                "row": null,
                "SEQ": null,
                "USUBJID": null,
                "value": {
                  "AEOCCUR": "Y"
                }
              }
            ]
          }
        ],
        "old_vs_sql": {
          "equal": true
        },
        "whitelisted": false,
        "sql_overall_result": "success",
        "old_overall_result": "success",
        "validated_results_folder_exists": false,
        "validation_file": "",
        "validation_file_validation": "",
        "old_result_validation": "invalid",
        "sql_results_validation": "invalid"
      }
    }
  },
  "CORE-000013": {
    "positive": {
      "01": {
        "datasets_import_sql": "SUCCESS",
        "results_present_sql": true,
        "results_sql": [
          {
            "dataset": "ae.xpt",
            "domain": "AE",
            "execution_status": "success",
            "execution_message": null,
            "number_errors": 0,
            "errors": []
          }
        ],
        "dataset_import_old": "SUCCESS",
        "results_present_old": true,
        "results_old": [
          {
            "dataset": "ae.xpt",
            "domain": "AE",
            "execution_status": "success",
            "execution_message": null,
            "number_errors": 0,
            "errors": []
          }
        ],
        "old_vs_sql": {
          "equal": true
        },
        "whitelisted": false,
        "sql_overall_result": "success",
        "old_overall_result": "success",
        "validated_results_folder_exists": false,
        "validation_file": "",
        "validation_file_validation": "",
        "old_result_validation": "invalid",
        "sql_results_validation": "invalid"
      }
    },
    "negative": {
      "01": {
        "datasets_import_sql": "SUCCESS",
        "results_present_sql": true,
        "results_sql": [
          {
            "dataset": "ae.xpt",
            "domain": "AE",
            "execution_status": "success",
            "execution_message": "AESTAT variable is present in AE dataset.",
            "number_errors": 1,
            "errors": [
              {
                "row": null,
                "SEQ": null,
                "USUBJID": null,
                "value": {
                  "AESTAT": "NOT DONE"
                }
              }
            ]
          }
        ],
        "dataset_import_old": "SUCCESS",
        "results_present_old": true,
        "results_old": [
          {
            "dataset": "ae.xpt",
            "domain": "AE",
            "execution_status": "success",
            "execution_message": "AESTAT variable is present in AE dataset.",
            "number_errors": 1,
            "errors": [
              {
                "row": null,
                "SEQ": null,
                "USUBJID": null,
                "value": {
                  "AESTAT": "NOT DONE"
                }
              }
            ]
          }
        ],
        "old_vs_sql": {
          "equal": true
        },
        "whitelisted": false,
        "sql_overall_result": "success",
        "old_overall_result": "success",
        "validated_results_folder_exists": false,
        "validation_file": "",
        "validation_file_validation": "",
        "old_result_validation": "invalid",
        "sql_results_validation": "invalid"
      },
      "02": {
        "datasets_import_sql": "SUCCESS",
        "results_present_sql": true,
        "results_sql": [
          {
            "dataset": "ae.xpt",
            "domain": "AE",
            "execution_status": "success",
            "execution_message": "AESTAT variable is present in AE dataset.",
            "number_errors": 1,
            "errors": [
              {
                "row": null,
                "SEQ": null,
                "USUBJID": null,
                "value": {
                  "AESTAT": null
                }
              }
            ]
          }
        ],
        "dataset_import_old": "SUCCESS",
        "results_present_old": true,
        "results_old": [
          {
            "dataset": "ae.xpt",
            "domain": "AE",
            "execution_status": "success",
            "execution_message": "AESTAT variable is present in AE dataset.",
            "number_errors": 1,
            "errors": [
              {
                "row": null,
                "SEQ": null,
                "USUBJID": null,
                "value": {
                  "AESTAT": null
                }
              }
            ]
          }
        ],
        "old_vs_sql": {
          "equal": true
        },
        "whitelisted": false,
        "sql_overall_result": "success",
        "old_overall_result": "success",
        "validated_results_folder_exists": false,
        "validation_file": "",
        "validation_file_validation": "",
        "old_result_validation": "invalid",
        "sql_results_validation": "invalid"
      }
    }
  },
  "CORE-000014": {
    "positive": {
      "01": {
        "datasets_import_sql": "SUCCESS",
        "results_present_sql": true,
        "results_sql": [
          {
            "dataset": "ag.xpt",
            "domain": "AG",
            "execution_status": "success",
            "execution_message": null,
            "number_errors": 0,
            "errors": []
          },
          {
            "dataset": "cm.xpt",
            "domain": "CM",
            "execution_status": "success",
            "execution_message": null,
            "number_errors": 0,
            "errors": []
          },
          {
            "dataset": "ec.xpt",
            "domain": "EC",
            "execution_status": "success",
            "execution_message": null,
            "number_errors": 0,
            "errors": []
          },
          {
            "dataset": "ex.xpt",
            "domain": "EX",
            "execution_status": "skipped",
            "execution_message": "Rule skipped - doesn't apply to domain for rule id=CORE-000014, dataset=EX",
            "number_errors": 0,
            "errors": []
          },
          {
            "dataset": "ml.xpt",
            "domain": "ML",
            "execution_status": "success",
            "execution_message": null,
            "number_errors": 0,
            "errors": []
          },
          {
            "dataset": "pr.xpt",
            "domain": "PR",
            "execution_status": "success",
            "execution_message": null,
            "number_errors": 0,
            "errors": []
          },
          {
            "dataset": "su.xpt",
            "domain": "SU",
            "execution_status": "success",
            "execution_message": null,
            "number_errors": 0,
            "errors": []
          },
          {
            "dataset": "ae.xpt",
            "domain": "AE",
            "execution_status": "skipped",
            "execution_message": "Rule skipped - doesn't apply to domain for rule id=CORE-000014, dataset=AE",
            "number_errors": 0,
            "errors": []
          },
          {
            "dataset": "be.xpt",
            "domain": "BE",
            "execution_status": "success",
            "execution_message": null,
            "number_errors": 0,
            "errors": []
          },
          {
            "dataset": "ce.xpt",
            "domain": "CE",
            "execution_status": "success",
            "execution_message": null,
            "number_errors": 0,
            "errors": []
          },
          {
            "dataset": "ds.xpt",
            "domain": "DS",
            "execution_status": "skipped",
            "execution_message": "Rule skipped - doesn't apply to domain for rule id=CORE-000014, dataset=DS",
            "number_errors": 0,
            "errors": []
          },
          {
            "dataset": "dv.xpt",
            "domain": "DV",
            "execution_status": "skipped",
            "execution_message": "Rule skipped - doesn't apply to domain for rule id=CORE-000014, dataset=DV",
            "number_errors": 0,
            "errors": []
          },
          {
            "dataset": "ho.xpt",
            "domain": "HO",
            "execution_status": "success",
            "execution_message": null,
            "number_errors": 0,
            "errors": []
          },
          {
            "dataset": "mh.xpt",
            "domain": "MH",
            "execution_status": "success",
            "execution_message": null,
            "number_errors": 0,
            "errors": []
          }
        ],
        "dataset_import_old": "SUCCESS",
        "results_present_old": true,
        "results_old": [
          {
            "dataset": "ag.xpt",
            "domain": "AG",
            "execution_status": "success",
            "execution_message": null,
            "number_errors": 0,
            "errors": []
          },
          {
            "dataset": "cm.xpt",
            "domain": "CM",
            "execution_status": "success",
            "execution_message": null,
            "number_errors": 0,
            "errors": []
          },
          {
            "dataset": "ec.xpt",
            "domain": "EC",
            "execution_status": "success",
            "execution_message": null,
            "number_errors": 0,
            "errors": []
          },
          {
            "dataset": "ex.xpt",
            "domain": "EX",
            "execution_status": "skipped",
            "execution_message": "Rule skipped - doesn't apply to domain for rule id=CORE-000014, dataset=EX",
            "number_errors": 0,
            "errors": []
          },
          {
            "dataset": "ml.xpt",
            "domain": "ML",
            "execution_status": "success",
            "execution_message": null,
            "number_errors": 0,
            "errors": []
          },
          {
            "dataset": "pr.xpt",
            "domain": "PR",
            "execution_status": "success",
            "execution_message": null,
            "number_errors": 0,
            "errors": []
          },
          {
            "dataset": "su.xpt",
            "domain": "SU",
            "execution_status": "success",
            "execution_message": null,
            "number_errors": 0,
            "errors": []
          },
          {
            "dataset": "ae.xpt",
            "domain": "AE",
            "execution_status": "skipped",
            "execution_message": "Rule skipped - doesn't apply to domain for rule id=CORE-000014, dataset=AE",
            "number_errors": 0,
            "errors": []
          },
          {
            "dataset": "be.xpt",
            "domain": "BE",
            "execution_status": "success",
            "execution_message": null,
            "number_errors": 0,
            "errors": []
          },
          {
            "dataset": "ce.xpt",
            "domain": "CE",
            "execution_status": "success",
            "execution_message": null,
            "number_errors": 0,
            "errors": []
          },
          {
            "dataset": "ds.xpt",
            "domain": "DS",
            "execution_status": "skipped",
            "execution_message": "Rule skipped - doesn't apply to domain for rule id=CORE-000014, dataset=DS",
            "number_errors": 0,
            "errors": []
          },
          {
            "dataset": "dv.xpt",
            "domain": "DV",
            "execution_status": "skipped",
            "execution_message": "Rule skipped - doesn't apply to domain for rule id=CORE-000014, dataset=DV",
            "number_errors": 0,
            "errors": []
          },
          {
            "dataset": "ho.xpt",
            "domain": "HO",
            "execution_status": "success",
            "execution_message": null,
            "number_errors": 0,
            "errors": []
          },
          {
            "dataset": "mh.xpt",
            "domain": "MH",
            "execution_status": "success",
            "execution_message": null,
            "number_errors": 0,
            "errors": []
          }
        ],
        "old_vs_sql": {
          "equal": true
        },
        "whitelisted": false,
        "sql_overall_result": "success",
        "old_overall_result": "success",
        "validated_results_folder_exists": false,
        "validation_file": "",
        "validation_file_validation": "",
        "old_result_validation": "invalid",
        "sql_results_validation": "invalid"
      },
      "02": {
        "datasets_import_sql": "SUCCESS",
        "results_present_sql": true,
        "results_sql": [
          {
            "dataset": "ag.xpt",
            "domain": "AG",
            "execution_status": "success",
            "execution_message": null,
            "number_errors": 0,
            "errors": []
          },
          {
            "dataset": "cm.xpt",
            "domain": "CM",
            "execution_status": "success",
            "execution_message": null,
            "number_errors": 0,
            "errors": []
          },
          {
            "dataset": "ec.xpt",
            "domain": "EC",
            "execution_status": "success",
            "execution_message": null,
            "number_errors": 0,
            "errors": []
          },
          {
            "dataset": "ex.xpt",
            "domain": "EX",
            "execution_status": "skipped",
            "execution_message": "Rule skipped - doesn't apply to domain for rule id=CORE-000014, dataset=EX",
            "number_errors": 0,
            "errors": []
          },
          {
            "dataset": "ml.xpt",
            "domain": "ML",
            "execution_status": "success",
            "execution_message": null,
            "number_errors": 0,
            "errors": []
          },
          {
            "dataset": "pr.xpt",
            "domain": "PR",
            "execution_status": "success",
            "execution_message": null,
            "number_errors": 0,
            "errors": []
          },
          {
            "dataset": "su.xpt",
            "domain": "SU",
            "execution_status": "success",
            "execution_message": null,
            "number_errors": 0,
            "errors": []
          },
          {
            "dataset": "ae.xpt",
            "domain": "AE",
            "execution_status": "skipped",
            "execution_message": "Rule skipped - doesn't apply to domain for rule id=CORE-000014, dataset=AE",
            "number_errors": 0,
            "errors": []
          },
          {
            "dataset": "be.xpt",
            "domain": "BE",
            "execution_status": "success",
            "execution_message": null,
            "number_errors": 0,
            "errors": []
          },
          {
            "dataset": "ce.xpt",
            "domain": "CE",
            "execution_status": "success",
            "execution_message": null,
            "number_errors": 0,
            "errors": []
          },
          {
            "dataset": "ds.xpt",
            "domain": "DS",
            "execution_status": "skipped",
            "execution_message": "Rule skipped - doesn't apply to domain for rule id=CORE-000014, dataset=DS",
            "number_errors": 0,
            "errors": []
          },
          {
            "dataset": "dv.xpt",
            "domain": "DV",
            "execution_status": "skipped",
            "execution_message": "Rule skipped - doesn't apply to domain for rule id=CORE-000014, dataset=DV",
            "number_errors": 0,
            "errors": []
          },
          {
            "dataset": "ho.xpt",
            "domain": "HO",
            "execution_status": "success",
            "execution_message": null,
            "number_errors": 0,
            "errors": []
          },
          {
            "dataset": "mh.xpt",
            "domain": "MH",
            "execution_status": "success",
            "execution_message": null,
            "number_errors": 0,
            "errors": []
          }
        ],
        "dataset_import_old": "SUCCESS",
        "results_present_old": true,
        "results_old": [
          {
            "dataset": "ag.xpt",
            "domain": "AG",
            "execution_status": "success",
            "execution_message": null,
            "number_errors": 0,
            "errors": []
          },
          {
            "dataset": "cm.xpt",
            "domain": "CM",
            "execution_status": "success",
            "execution_message": null,
            "number_errors": 0,
            "errors": []
          },
          {
            "dataset": "ec.xpt",
            "domain": "EC",
            "execution_status": "success",
            "execution_message": null,
            "number_errors": 0,
            "errors": []
          },
          {
            "dataset": "ex.xpt",
            "domain": "EX",
            "execution_status": "skipped",
            "execution_message": "Rule skipped - doesn't apply to domain for rule id=CORE-000014, dataset=EX",
            "number_errors": 0,
            "errors": []
          },
          {
            "dataset": "ml.xpt",
            "domain": "ML",
            "execution_status": "success",
            "execution_message": null,
            "number_errors": 0,
            "errors": []
          },
          {
            "dataset": "pr.xpt",
            "domain": "PR",
            "execution_status": "success",
            "execution_message": null,
            "number_errors": 0,
            "errors": []
          },
          {
            "dataset": "su.xpt",
            "domain": "SU",
            "execution_status": "success",
            "execution_message": null,
            "number_errors": 0,
            "errors": []
          },
          {
            "dataset": "ae.xpt",
            "domain": "AE",
            "execution_status": "skipped",
            "execution_message": "Rule skipped - doesn't apply to domain for rule id=CORE-000014, dataset=AE",
            "number_errors": 0,
            "errors": []
          },
          {
            "dataset": "be.xpt",
            "domain": "BE",
            "execution_status": "success",
            "execution_message": null,
            "number_errors": 0,
            "errors": []
          },
          {
            "dataset": "ce.xpt",
            "domain": "CE",
            "execution_status": "success",
            "execution_message": null,
            "number_errors": 0,
            "errors": []
          },
          {
            "dataset": "ds.xpt",
            "domain": "DS",
            "execution_status": "skipped",
            "execution_message": "Rule skipped - doesn't apply to domain for rule id=CORE-000014, dataset=DS",
            "number_errors": 0,
            "errors": []
          },
          {
            "dataset": "dv.xpt",
            "domain": "DV",
            "execution_status": "skipped",
            "execution_message": "Rule skipped - doesn't apply to domain for rule id=CORE-000014, dataset=DV",
            "number_errors": 0,
            "errors": []
          },
          {
            "dataset": "ho.xpt",
            "domain": "HO",
            "execution_status": "success",
            "execution_message": null,
            "number_errors": 0,
            "errors": []
          },
          {
            "dataset": "mh.xpt",
            "domain": "MH",
            "execution_status": "success",
            "execution_message": null,
            "number_errors": 0,
            "errors": []
          }
        ],
        "old_vs_sql": {
          "equal": true
        },
        "whitelisted": false,
        "sql_overall_result": "success",
        "old_overall_result": "success",
        "validated_results_folder_exists": false,
        "validation_file": "",
        "validation_file_validation": "",
        "old_result_validation": "invalid",
        "sql_results_validation": "invalid"
      }
    },
    "negative": {
      "01": {
        "datasets_import_sql": "SUCCESS",
        "results_present_sql": true,
        "results_sql": [
          {
            "dataset": "ag.xpt",
            "domain": "AG",
            "execution_status": "success",
            "execution_message": "AGOCCUR should only be provided when AGPRESP is equal to \"Y\".",
            "number_errors": 3,
            "errors": [
              {
                "row": 1,
                "SEQ": 1,
                "USUBJID": "CDISC001",
                "value": {
                  "AGPRESP": null,
                  "AGOCCUR": "Y",
                  "AGSTAT": null
                }
              },
              {
                "row": 2,
                "SEQ": 2,
                "USUBJID": "CDISC001",
                "value": {
                  "AGPRESP": null,
                  "AGOCCUR": "N",
                  "AGSTAT": null
                }
              },
              {
                "row": 3,
                "SEQ": 3,
                "USUBJID": "CDISC001",
                "value": {
                  "AGPRESP": null,
                  "AGOCCUR": "Y",
                  "AGSTAT": "NOT DONE"
                }
              }
            ]
          },
          {
            "dataset": "cm.xpt",
            "domain": "CM",
            "execution_status": "success",
            "execution_message": "CMOCCUR should only be provided when CMPRESP is equal to \"Y\".",
            "number_errors": 3,
            "errors": [
              {
                "row": 1,
                "SEQ": 1,
                "USUBJID": "CDISC001",
                "value": {
                  "CMPRESP": null,
                  "CMOCCUR": "Y",
                  "CMSTAT": null
                }
              },
              {
                "row": 2,
                "SEQ": 2,
                "USUBJID": "CDISC001",
                "value": {
                  "CMPRESP": null,
                  "CMOCCUR": "N",
                  "CMSTAT": null
                }
              },
              {
                "row": 3,
                "SEQ": 3,
                "USUBJID": "CDISC001",
                "value": {
                  "CMPRESP": null,
                  "CMOCCUR": "Y",
                  "CMSTAT": "NOT DONE"
                }
              }
            ]
          },
          {
            "dataset": "ec.xpt",
            "domain": "EC",
            "execution_status": "success",
            "execution_message": "ECOCCUR should only be provided when ECPRESP is equal to \"Y\".",
            "number_errors": 3,
            "errors": [
              {
                "row": 1,
                "SEQ": 1,
                "USUBJID": "CDISC001",
                "value": {
                  "ECPRESP": null,
                  "ECOCCUR": "Y",
                  "ECSTAT": "Not in dataset"
                }
              },
              {
                "row": 2,
                "SEQ": 2,
                "USUBJID": "CDISC001",
                "value": {
                  "ECPRESP": null,
                  "ECOCCUR": "N",
                  "ECSTAT": "Not in dataset"
                }
              },
              {
                "row": 3,
                "SEQ": 3,
                "USUBJID": "CDISC001",
                "value": {
                  "ECPRESP": null,
                  "ECOCCUR": "Y",
                  "ECSTAT": "Not in dataset"
                }
              }
            ]
          },
          {
            "dataset": "ex.xpt",
            "domain": "EX",
            "execution_status": "skipped",
            "execution_message": "Rule skipped - doesn't apply to domain for rule id=CORE-000014, dataset=EX",
            "number_errors": 0,
            "errors": []
          },
          {
            "dataset": "ml.xpt",
            "domain": "ML",
            "execution_status": "success",
            "execution_message": "MLOCCUR should only be provided when MLPRESP is equal to \"Y\".",
            "number_errors": 3,
            "errors": [
              {
                "row": 1,
                "SEQ": 1,
                "USUBJID": "CDISC001",
                "value": {
                  "MLPRESP": null,
                  "MLOCCUR": "Y",
                  "MLSTAT": null
                }
              },
              {
                "row": 2,
                "SEQ": 2,
                "USUBJID": "CDISC001",
                "value": {
                  "MLPRESP": null,
                  "MLOCCUR": "N",
                  "MLSTAT": null
                }
              },
              {
                "row": 3,
                "SEQ": 3,
                "USUBJID": "CDISC001",
                "value": {
                  "MLPRESP": null,
                  "MLOCCUR": "Y",
                  "MLSTAT": "NOT DONE"
                }
              }
            ]
          },
          {
            "dataset": "pr.xpt",
            "domain": "PR",
            "execution_status": "success",
            "execution_message": "PROCCUR should only be provided when PRPRESP is equal to \"Y\".",
            "number_errors": 3,
            "errors": [
              {
                "row": 1,
                "SEQ": 1,
                "USUBJID": "CDISC001",
                "value": {
                  "PRPRESP": null,
                  "PROCCUR": "Y",
                  "PRSTAT": null
                }
              },
              {
                "row": 2,
                "SEQ": 2,
                "USUBJID": "CDISC001",
                "value": {
                  "PRPRESP": null,
                  "PROCCUR": "N",
                  "PRSTAT": "NOT DONE"
                }
              },
              {
                "row": 3,
                "SEQ": 3,
                "USUBJID": "CDISC001",
                "value": {
                  "PRPRESP": null,
                  "PROCCUR": "Y",
                  "PRSTAT": null
                }
              }
            ]
          },
          {
            "dataset": "su.xpt",
            "domain": "SU",
            "execution_status": "success",
            "execution_message": "SUOCCUR should only be provided when SUPRESP is equal to \"Y\".",
            "number_errors": 3,
            "errors": [
              {
                "row": 1,
                "SEQ": 1,
                "USUBJID": "CDISC001",
                "value": {
                  "SUPRESP": null,
                  "SUOCCUR": "Y",
                  "SUSTAT": null
                }
              },
              {
                "row": 2,
                "SEQ": 2,
                "USUBJID": "CDISC001",
                "value": {
                  "SUPRESP": null,
                  "SUOCCUR": "N",
                  "SUSTAT": "NOT DONE"
                }
              },
              {
                "row": 3,
                "SEQ": 3,
                "USUBJID": "CDISC001",
                "value": {
                  "SUPRESP": null,
                  "SUOCCUR": "Y",
                  "SUSTAT": null
                }
              }
            ]
          },
          {
            "dataset": "ae.xpt",
            "domain": "AE",
            "execution_status": "skipped",
            "execution_message": "Rule skipped - doesn't apply to domain for rule id=CORE-000014, dataset=AE",
            "number_errors": 0,
            "errors": []
          },
          {
            "dataset": "be.xpt",
            "domain": "BE",
            "execution_status": "success",
            "execution_message": "BEOCCUR should only be provided when BEPRESP is equal to \"Y\".",
            "number_errors": 4,
            "errors": [
              {
                "row": 1,
                "SEQ": 1,
                "USUBJID": "CDISC001",
                "value": {
                  "BEPRESP": null,
                  "BEOCCUR": "Y",
                  "BESTAT": null
                }
              },
              {
                "row": 2,
                "SEQ": 2,
                "USUBJID": "CDISC001",
                "value": {
                  "BEPRESP": null,
                  "BEOCCUR": "N",
                  "BESTAT": null
                }
              },
              {
                "row": 3,
                "SEQ": 3,
                "USUBJID": "CDISC001",
                "value": {
                  "BEPRESP": null,
                  "BEOCCUR": "Y",
                  "BESTAT": "NOT DONE"
                }
              },
              {
                "row": 4,
                "SEQ": 4,
                "USUBJID": "CDISC001",
                "value": {
                  "BEPRESP": null,
                  "BEOCCUR": "N",
                  "BESTAT": null
                }
              }
            ]
          },
          {
            "dataset": "ce.xpt",
            "domain": "CE",
            "execution_status": "success",
            "execution_message": "CEOCCUR should only be provided when CEPRESP is equal to \"Y\".",
            "number_errors": 4,
            "errors": [
              {
                "row": 1,
                "SEQ": 1,
                "USUBJID": "CDISC001",
                "value": {
                  "CEPRESP": null,
                  "CEOCCUR": "Y",
                  "CESTAT": null
                }
              },
              {
                "row": 2,
                "SEQ": 2,
                "USUBJID": "CDISC001",
                "value": {
                  "CEPRESP": null,
                  "CEOCCUR": "N",
                  "CESTAT": null
                }
              },
              {
                "row": 3,
                "SEQ": 3,
                "USUBJID": "CDISC001",
                "value": {
                  "CEPRESP": null,
                  "CEOCCUR": "Y",
                  "CESTAT": "NOT DONE"
                }
              },
              {
                "row": 4,
                "SEQ": 4,
                "USUBJID": "CDISC001",
                "value": {
                  "CEPRESP": null,
                  "CEOCCUR": "N",
                  "CESTAT": null
                }
              }
            ]
          },
          {
            "dataset": "ds.xpt",
            "domain": "DS",
            "execution_status": "skipped",
            "execution_message": "Rule skipped - doesn't apply to domain for rule id=CORE-000014, dataset=DS",
            "number_errors": 0,
            "errors": []
          },
          {
            "dataset": "dv.xpt",
            "domain": "DV",
            "execution_status": "skipped",
            "execution_message": "Rule skipped - doesn't apply to domain for rule id=CORE-000014, dataset=DV",
            "number_errors": 0,
            "errors": []
          },
          {
            "dataset": "ho.xpt",
            "domain": "HO",
            "execution_status": "success",
            "execution_message": "HOOCCUR should only be provided when HOPRESP is equal to \"Y\".",
            "number_errors": 4,
            "errors": [
              {
                "row": 1,
                "SEQ": 1,
                "USUBJID": "CDISC001",
                "value": {
                  "HOPRESP": null,
                  "HOOCCUR": "Y",
                  "HOSTAT": null
                }
              },
              {
                "row": 2,
                "SEQ": 2,
                "USUBJID": "CDISC001",
                "value": {
                  "HOPRESP": null,
                  "HOOCCUR": "N",
                  "HOSTAT": null
                }
              },
              {
                "row": 3,
                "SEQ": 3,
                "USUBJID": "CDISC001",
                "value": {
                  "HOPRESP": null,
                  "HOOCCUR": "Y",
                  "HOSTAT": "NOT DONE"
                }
              },
              {
                "row": 4,
                "SEQ": 1,
                "USUBJID": "CDISC002",
                "value": {
                  "HOPRESP": null,
                  "HOOCCUR": "N",
                  "HOSTAT": null
                }
              }
            ]
          },
          {
            "dataset": "mh.xpt",
            "domain": "MH",
            "execution_status": "success",
            "execution_message": "MHOCCUR should only be provided when MHPRESP is equal to \"Y\".",
            "number_errors": 4,
            "errors": [
              {
                "row": 1,
                "SEQ": 1,
                "USUBJID": "CDISC001",
                "value": {
                  "MHPRESP": null,
                  "MHOCCUR": "Y",
                  "MHSTAT": null
                }
              },
              {
                "row": 2,
                "SEQ": 2,
                "USUBJID": "CDISC001",
                "value": {
                  "MHPRESP": null,
                  "MHOCCUR": "N",
                  "MHSTAT": "NOT DONE"
                }
              },
              {
                "row": 3,
                "SEQ": 3,
                "USUBJID": "CDISC001",
                "value": {
                  "MHPRESP": null,
                  "MHOCCUR": "Y",
                  "MHSTAT": "NOT DONE"
                }
              },
              {
                "row": 4,
                "SEQ": 1,
                "USUBJID": "CDISC002",
                "value": {
                  "MHPRESP": null,
                  "MHOCCUR": "N",
                  "MHSTAT": null
                }
              }
            ]
          }
        ],
        "dataset_import_old": "SUCCESS",
        "results_present_old": true,
        "results_old": [
          {
            "dataset": "ag.xpt",
            "domain": "AG",
            "execution_status": "success",
            "execution_message": "AGOCCUR should only be provided when AGPRESP is equal to \"Y\".",
            "number_errors": 3,
            "errors": [
              {
                "row": 1,
                "SEQ": 1,
                "USUBJID": "CDISC001",
                "value": {
                  "AGPRESP": null,
                  "AGSTAT": null,
                  "AGOCCUR": "Y"
                }
              },
              {
                "row": 2,
                "SEQ": 2,
                "USUBJID": "CDISC001",
                "value": {
                  "AGPRESP": null,
                  "AGSTAT": null,
                  "AGOCCUR": "N"
                }
              },
              {
                "row": 3,
                "SEQ": 3,
                "USUBJID": "CDISC001",
                "value": {
                  "AGPRESP": null,
                  "AGSTAT": "NOT DONE",
                  "AGOCCUR": "Y"
                }
              }
            ]
          },
          {
            "dataset": "cm.xpt",
            "domain": "CM",
            "execution_status": "success",
            "execution_message": "CMOCCUR should only be provided when CMPRESP is equal to \"Y\".",
            "number_errors": 3,
            "errors": [
              {
                "row": 1,
                "SEQ": 1,
                "USUBJID": "CDISC001",
                "value": {
                  "CMOCCUR": "Y",
                  "CMPRESP": null,
                  "CMSTAT": null
                }
              },
              {
                "row": 2,
                "SEQ": 2,
                "USUBJID": "CDISC001",
                "value": {
                  "CMOCCUR": "N",
                  "CMPRESP": null,
                  "CMSTAT": null
                }
              },
              {
                "row": 3,
                "SEQ": 3,
                "USUBJID": "CDISC001",
                "value": {
                  "CMOCCUR": "Y",
                  "CMPRESP": null,
                  "CMSTAT": "NOT DONE"
                }
              }
            ]
          },
          {
            "dataset": "ec.xpt",
            "domain": "EC",
            "execution_status": "success",
            "execution_message": "ECOCCUR should only be provided when ECPRESP is equal to \"Y\".",
            "number_errors": 3,
            "errors": [
              {
                "row": 1,
                "SEQ": 1,
                "USUBJID": "CDISC001",
                "value": {
                  "ECPRESP": null,
                  "ECOCCUR": "Y",
                  "ECSTAT": "Not in dataset"
                }
              },
              {
                "row": 2,
                "SEQ": 2,
                "USUBJID": "CDISC001",
                "value": {
                  "ECPRESP": null,
                  "ECOCCUR": "N",
                  "ECSTAT": "Not in dataset"
                }
              },
              {
                "row": 3,
                "SEQ": 3,
                "USUBJID": "CDISC001",
                "value": {
                  "ECPRESP": null,
                  "ECOCCUR": "Y",
                  "ECSTAT": "Not in dataset"
                }
              }
            ]
          },
          {
            "dataset": "ex.xpt",
            "domain": "EX",
            "execution_status": "skipped",
            "execution_message": "Rule skipped - doesn't apply to domain for rule id=CORE-000014, dataset=EX",
            "number_errors": 0,
            "errors": []
          },
          {
            "dataset": "ml.xpt",
            "domain": "ML",
            "execution_status": "success",
            "execution_message": "MLOCCUR should only be provided when MLPRESP is equal to \"Y\".",
            "number_errors": 3,
            "errors": [
              {
                "row": 1,
                "SEQ": 1,
                "USUBJID": "CDISC001",
                "value": {
                  "MLSTAT": null,
                  "MLPRESP": null,
                  "MLOCCUR": "Y"
                }
              },
              {
                "row": 2,
                "SEQ": 2,
                "USUBJID": "CDISC001",
                "value": {
                  "MLSTAT": null,
                  "MLPRESP": null,
                  "MLOCCUR": "N"
                }
              },
              {
                "row": 3,
                "SEQ": 3,
                "USUBJID": "CDISC001",
                "value": {
                  "MLSTAT": "NOT DONE",
                  "MLPRESP": null,
                  "MLOCCUR": "Y"
                }
              }
            ]
          },
          {
            "dataset": "pr.xpt",
            "domain": "PR",
            "execution_status": "success",
            "execution_message": "PROCCUR should only be provided when PRPRESP is equal to \"Y\".",
            "number_errors": 3,
            "errors": [
              {
                "row": 1,
                "SEQ": 1,
                "USUBJID": "CDISC001",
                "value": {
                  "PRSTAT": null,
                  "PRPRESP": null,
                  "PROCCUR": "Y"
                }
              },
              {
                "row": 2,
                "SEQ": 2,
                "USUBJID": "CDISC001",
                "value": {
                  "PRSTAT": "NOT DONE",
                  "PRPRESP": null,
                  "PROCCUR": "N"
                }
              },
              {
                "row": 3,
                "SEQ": 3,
                "USUBJID": "CDISC001",
                "value": {
                  "PRSTAT": null,
                  "PRPRESP": null,
                  "PROCCUR": "Y"
                }
              }
            ]
          },
          {
            "dataset": "su.xpt",
            "domain": "SU",
            "execution_status": "success",
            "execution_message": "SUOCCUR should only be provided when SUPRESP is equal to \"Y\".",
            "number_errors": 3,
            "errors": [
              {
                "row": 1,
                "SEQ": 1,
                "USUBJID": "CDISC001",
                "value": {
                  "SUPRESP": null,
                  "SUOCCUR": "Y",
                  "SUSTAT": null
                }
              },
              {
                "row": 2,
                "SEQ": 2,
                "USUBJID": "CDISC001",
                "value": {
                  "SUPRESP": null,
                  "SUOCCUR": "N",
                  "SUSTAT": "NOT DONE"
                }
              },
              {
                "row": 3,
                "SEQ": 3,
                "USUBJID": "CDISC001",
                "value": {
                  "SUPRESP": null,
                  "SUOCCUR": "Y",
                  "SUSTAT": null
                }
              }
            ]
          },
          {
            "dataset": "ae.xpt",
            "domain": "AE",
            "execution_status": "skipped",
            "execution_message": "Rule skipped - doesn't apply to domain for rule id=CORE-000014, dataset=AE",
            "number_errors": 0,
            "errors": []
          },
          {
            "dataset": "be.xpt",
            "domain": "BE",
            "execution_status": "success",
            "execution_message": "BEOCCUR should only be provided when BEPRESP is equal to \"Y\".",
            "number_errors": 4,
            "errors": [
              {
                "row": 1,
                "SEQ": 1,
                "USUBJID": "CDISC001",
                "value": {
                  "BEOCCUR": "Y",
                  "BESTAT": null,
                  "BEPRESP": null
                }
              },
              {
                "row": 2,
                "SEQ": 2,
                "USUBJID": "CDISC001",
                "value": {
                  "BEOCCUR": "N",
                  "BESTAT": null,
                  "BEPRESP": null
                }
              },
              {
                "row": 3,
                "SEQ": 3,
                "USUBJID": "CDISC001",
                "value": {
                  "BEOCCUR": "Y",
                  "BESTAT": "NOT DONE",
                  "BEPRESP": null
                }
              },
              {
                "row": 4,
                "SEQ": 4,
                "USUBJID": "CDISC001",
                "value": {
                  "BEOCCUR": "N",
                  "BESTAT": null,
                  "BEPRESP": null
                }
              }
            ]
          },
          {
            "dataset": "ce.xpt",
            "domain": "CE",
            "execution_status": "success",
            "execution_message": "CEOCCUR should only be provided when CEPRESP is equal to \"Y\".",
            "number_errors": 4,
            "errors": [
              {
                "row": 1,
                "SEQ": 1,
                "USUBJID": "CDISC001",
                "value": {
                  "CESTAT": null,
                  "CEPRESP": null,
                  "CEOCCUR": "Y"
                }
              },
              {
                "row": 2,
                "SEQ": 2,
                "USUBJID": "CDISC001",
                "value": {
                  "CESTAT": null,
                  "CEPRESP": null,
                  "CEOCCUR": "N"
                }
              },
              {
                "row": 3,
                "SEQ": 3,
                "USUBJID": "CDISC001",
                "value": {
                  "CESTAT": "NOT DONE",
                  "CEPRESP": null,
                  "CEOCCUR": "Y"
                }
              },
              {
                "row": 4,
                "SEQ": 4,
                "USUBJID": "CDISC001",
                "value": {
                  "CESTAT": null,
                  "CEPRESP": null,
                  "CEOCCUR": "N"
                }
              }
            ]
          },
          {
            "dataset": "ds.xpt",
            "domain": "DS",
            "execution_status": "skipped",
            "execution_message": "Rule skipped - doesn't apply to domain for rule id=CORE-000014, dataset=DS",
            "number_errors": 0,
            "errors": []
          },
          {
            "dataset": "dv.xpt",
            "domain": "DV",
            "execution_status": "skipped",
            "execution_message": "Rule skipped - doesn't apply to domain for rule id=CORE-000014, dataset=DV",
            "number_errors": 0,
            "errors": []
          },
          {
            "dataset": "ho.xpt",
            "domain": "HO",
            "execution_status": "success",
            "execution_message": "HOOCCUR should only be provided when HOPRESP is equal to \"Y\".",
            "number_errors": 4,
            "errors": [
              {
                "row": 1,
                "SEQ": 1,
                "USUBJID": "CDISC001",
                "value": {
                  "HOOCCUR": "Y",
                  "HOPRESP": null,
                  "HOSTAT": null
                }
              },
              {
                "row": 2,
                "SEQ": 2,
                "USUBJID": "CDISC001",
                "value": {
                  "HOOCCUR": "N",
                  "HOPRESP": null,
                  "HOSTAT": null
                }
              },
              {
                "row": 3,
                "SEQ": 3,
                "USUBJID": "CDISC001",
                "value": {
                  "HOOCCUR": "Y",
                  "HOPRESP": null,
                  "HOSTAT": "NOT DONE"
                }
              },
              {
                "row": 4,
                "SEQ": 1,
                "USUBJID": "CDISC002",
                "value": {
                  "HOOCCUR": "N",
                  "HOPRESP": null,
                  "HOSTAT": null
                }
              }
            ]
          },
          {
            "dataset": "mh.xpt",
            "domain": "MH",
            "execution_status": "success",
            "execution_message": "MHOCCUR should only be provided when MHPRESP is equal to \"Y\".",
            "number_errors": 4,
            "errors": [
              {
                "row": 1,
                "SEQ": 1,
                "USUBJID": "CDISC001",
                "value": {
                  "MHPRESP": null,
                  "MHSTAT": null,
                  "MHOCCUR": "Y"
                }
              },
              {
                "row": 2,
                "SEQ": 2,
                "USUBJID": "CDISC001",
                "value": {
                  "MHPRESP": null,
                  "MHSTAT": "NOT DONE",
                  "MHOCCUR": "N"
                }
              },
              {
                "row": 3,
                "SEQ": 3,
                "USUBJID": "CDISC001",
                "value": {
                  "MHPRESP": null,
                  "MHSTAT": "NOT DONE",
                  "MHOCCUR": "Y"
                }
              },
              {
                "row": 4,
                "SEQ": 1,
                "USUBJID": "CDISC002",
                "value": {
                  "MHPRESP": null,
                  "MHSTAT": null,
                  "MHOCCUR": "N"
                }
              }
            ]
          }
        ],
        "old_vs_sql": {
          "equal": true
        },
        "whitelisted": false,
        "sql_overall_result": "success",
        "old_overall_result": "success",
        "validated_results_folder_exists": false,
        "validation_file": "",
        "validation_file_validation": "",
        "old_result_validation": "invalid",
        "sql_results_validation": "invalid"
      },
      "02": {
        "datasets_import_sql": "SUCCESS",
        "results_present_sql": true,
        "results_sql": [
          {
            "dataset": "ag.xpt",
            "domain": "AG",
            "execution_status": "success",
            "execution_message": "AGOCCUR should only be provided when AGPRESP is equal to \"Y\".",
            "number_errors": 2,
            "errors": [
              {
                "row": 1,
                "SEQ": 1,
                "USUBJID": "CDISC001",
                "value": {
                  "AGPRESP": null,
                  "AGOCCUR": "Y",
                  "AGSTAT": null
                }
              },
              {
                "row": 2,
                "SEQ": 2,
                "USUBJID": "CDISC001",
                "value": {
                  "AGPRESP": null,
                  "AGOCCUR": "Y",
                  "AGSTAT": "NOT DONE"
                }
              }
            ]
          },
          {
            "dataset": "cm.xpt",
            "domain": "CM",
            "execution_status": "success",
            "execution_message": "CMOCCUR should only be provided when CMPRESP is equal to \"Y\".",
            "number_errors": 2,
            "errors": [
              {
                "row": 1,
                "SEQ": 1,
                "USUBJID": "CDISC001",
                "value": {
                  "CMPRESP": null,
                  "CMOCCUR": "Y",
                  "CMSTAT": null
                }
              },
              {
                "row": 2,
                "SEQ": 2,
                "USUBJID": "CDISC001",
                "value": {
                  "CMPRESP": null,
                  "CMOCCUR": "Y",
                  "CMSTAT": "NOT DONE"
                }
              }
            ]
          },
          {
            "dataset": "ec.xpt",
            "domain": "EC",
            "execution_status": "success",
            "execution_message": "ECOCCUR should only be provided when ECPRESP is equal to \"Y\".",
            "number_errors": 3,
            "errors": [
              {
                "row": 1,
                "SEQ": 1,
                "USUBJID": "CDISC001",
                "value": {
                  "ECPRESP": null,
                  "ECOCCUR": "Y",
                  "ECSTAT": null
                }
              },
              {
                "row": 2,
                "SEQ": 2,
                "USUBJID": "CDISC001",
                "value": {
                  "ECPRESP": null,
                  "ECOCCUR": "Y",
                  "ECSTAT": "NOT DONE"
                }
              },
              {
                "row": 3,
                "SEQ": 3,
                "USUBJID": "CDISC001",
                "value": {
                  "ECPRESP": null,
                  "ECOCCUR": "N",
                  "ECSTAT": null
                }
              }
            ]
          },
          {
            "dataset": "ex.xpt",
            "domain": "EX",
            "execution_status": "skipped",
            "execution_message": "Rule skipped - doesn't apply to domain for rule id=CORE-000014, dataset=EX",
            "number_errors": 0,
            "errors": []
          },
          {
            "dataset": "ml.xpt",
            "domain": "ML",
            "execution_status": "success",
            "execution_message": "MLOCCUR should only be provided when MLPRESP is equal to \"Y\".",
            "number_errors": 2,
            "errors": [
              {
                "row": 1,
                "SEQ": 1,
                "USUBJID": "CDISC001",
                "value": {
                  "MLPRESP": null,
                  "MLOCCUR": "Y",
                  "MLSTAT": null
                }
              },
              {
                "row": 2,
                "SEQ": 2,
                "USUBJID": "CDISC001",
                "value": {
                  "MLPRESP": null,
                  "MLOCCUR": "Y",
                  "MLSTAT": "NOT DONE"
                }
              }
            ]
          },
          {
            "dataset": "pr.xpt",
            "domain": "PR",
            "execution_status": "success",
            "execution_message": "PROCCUR should only be provided when PRPRESP is equal to \"Y\".",
            "number_errors": 2,
            "errors": [
              {
                "row": 1,
                "SEQ": 1,
                "USUBJID": "CDISC001",
                "value": {
                  "PRPRESP": null,
                  "PROCCUR": "Y",
                  "PRSTAT": null
                }
              },
              {
                "row": 2,
                "SEQ": 2,
                "USUBJID": "CDISC001",
                "value": {
                  "PRPRESP": null,
                  "PROCCUR": "Y",
                  "PRSTAT": "NOT DONE"
                }
              }
            ]
          },
          {
            "dataset": "su.xpt",
            "domain": "SU",
            "execution_status": "success",
            "execution_message": "SUOCCUR should only be provided when SUPRESP is equal to \"Y\".",
            "number_errors": 2,
            "errors": [
              {
                "row": 1,
                "SEQ": 1,
                "USUBJID": "CDISC001",
                "value": {
                  "SUPRESP": null,
                  "SUOCCUR": "Y",
                  "SUSTAT": null
                }
              },
              {
                "row": 2,
                "SEQ": 2,
                "USUBJID": "CDISC001",
                "value": {
                  "SUPRESP": null,
                  "SUOCCUR": "Y",
                  "SUSTAT": "NOT DONE"
                }
              }
            ]
          },
          {
            "dataset": "ae.xpt",
            "domain": "AE",
            "execution_status": "skipped",
            "execution_message": "Rule skipped - doesn't apply to domain for rule id=CORE-000014, dataset=AE",
            "number_errors": 0,
            "errors": []
          },
          {
            "dataset": "be.xpt",
            "domain": "BE",
            "execution_status": "success",
            "execution_message": "BEOCCUR should only be provided when BEPRESP is equal to \"Y\".",
            "number_errors": 3,
            "errors": [
              {
                "row": 1,
                "SEQ": 1,
                "USUBJID": "CDISC001",
                "value": {
                  "BEPRESP": null,
                  "BEOCCUR": "Y",
                  "BESTAT": null
                }
              },
              {
                "row": 2,
                "SEQ": 2,
                "USUBJID": "CDISC001",
                "value": {
                  "BEPRESP": null,
                  "BEOCCUR": "Y",
                  "BESTAT": "NOT DONE"
                }
              },
              {
                "row": 3,
                "SEQ": 3,
                "USUBJID": "CDISC001",
                "value": {
                  "BEPRESP": null,
                  "BEOCCUR": "N",
                  "BESTAT": null
                }
              }
            ]
          },
          {
            "dataset": "ce.xpt",
            "domain": "CE",
            "execution_status": "success",
            "execution_message": "CEOCCUR should only be provided when CEPRESP is equal to \"Y\".",
            "number_errors": 3,
            "errors": [
              {
                "row": 1,
                "SEQ": 1,
                "USUBJID": "CDISC001",
                "value": {
                  "CEPRESP": null,
                  "CEOCCUR": "Y",
                  "CESTAT": null
                }
              },
              {
                "row": 2,
                "SEQ": 2,
                "USUBJID": "CDISC001",
                "value": {
                  "CEPRESP": null,
                  "CEOCCUR": "Y",
                  "CESTAT": "NOT DONE"
                }
              },
              {
                "row": 3,
                "SEQ": 3,
                "USUBJID": "CDISC001",
                "value": {
                  "CEPRESP": null,
                  "CEOCCUR": "N",
                  "CESTAT": null
                }
              }
            ]
          },
          {
            "dataset": "ds.xpt",
            "domain": "DS",
            "execution_status": "skipped",
            "execution_message": "Rule skipped - doesn't apply to domain for rule id=CORE-000014, dataset=DS",
            "number_errors": 0,
            "errors": []
          },
          {
            "dataset": "dv.xpt",
            "domain": "DV",
            "execution_status": "skipped",
            "execution_message": "Rule skipped - doesn't apply to domain for rule id=CORE-000014, dataset=DV",
            "number_errors": 0,
            "errors": []
          },
          {
            "dataset": "ho.xpt",
            "domain": "HO",
            "execution_status": "success",
            "execution_message": "HOOCCUR should only be provided when HOPRESP is equal to \"Y\".",
            "number_errors": 3,
            "errors": [
              {
                "row": 1,
                "SEQ": 1,
                "USUBJID": "CDISC001",
                "value": {
                  "HOPRESP": null,
                  "HOOCCUR": "Y",
                  "HOSTAT": null
                }
              },
              {
                "row": 2,
                "SEQ": 2,
                "USUBJID": "CDISC001",
                "value": {
                  "HOPRESP": null,
                  "HOOCCUR": "Y",
                  "HOSTAT": "NOT DONE"
                }
              },
              {
                "row": 3,
                "SEQ": 3,
                "USUBJID": "CDISC001",
                "value": {
                  "HOPRESP": null,
                  "HOOCCUR": "N",
                  "HOSTAT": null
                }
              }
            ]
          },
          {
            "dataset": "mh.xpt",
            "domain": "MH",
            "execution_status": "success",
            "execution_message": "MHOCCUR should only be provided when MHPRESP is equal to \"Y\".",
            "number_errors": 3,
            "errors": [
              {
                "row": 1,
                "SEQ": 1,
                "USUBJID": "CDISC001",
                "value": {
                  "MHPRESP": null,
                  "MHOCCUR": "Y",
                  "MHSTAT": null
                }
              },
              {
                "row": 2,
                "SEQ": 2,
                "USUBJID": "CDISC001",
                "value": {
                  "MHPRESP": null,
                  "MHOCCUR": "Y",
                  "MHSTAT": "NOT DONE"
                }
              },
              {
                "row": 3,
                "SEQ": 3,
                "USUBJID": "CDISC001",
                "value": {
                  "MHPRESP": null,
                  "MHOCCUR": "N",
                  "MHSTAT": null
                }
              }
            ]
          }
        ],
        "dataset_import_old": "SUCCESS",
        "results_present_old": true,
        "results_old": [
          {
            "dataset": "ag.xpt",
            "domain": "AG",
            "execution_status": "success",
            "execution_message": "AGOCCUR should only be provided when AGPRESP is equal to \"Y\".",
            "number_errors": 2,
            "errors": [
              {
                "row": 1,
                "SEQ": 1,
                "USUBJID": "CDISC001",
                "value": {
                  "AGPRESP": null,
                  "AGSTAT": null,
                  "AGOCCUR": "Y"
                }
              },
              {
                "row": 2,
                "SEQ": 2,
                "USUBJID": "CDISC001",
                "value": {
                  "AGPRESP": null,
                  "AGSTAT": "NOT DONE",
                  "AGOCCUR": "Y"
                }
              }
            ]
          },
          {
            "dataset": "cm.xpt",
            "domain": "CM",
            "execution_status": "success",
            "execution_message": "CMOCCUR should only be provided when CMPRESP is equal to \"Y\".",
            "number_errors": 2,
            "errors": [
              {
                "row": 1,
                "SEQ": 1,
                "USUBJID": "CDISC001",
                "value": {
                  "CMOCCUR": "Y",
                  "CMPRESP": null,
                  "CMSTAT": null
                }
              },
              {
                "row": 2,
                "SEQ": 2,
                "USUBJID": "CDISC001",
                "value": {
                  "CMOCCUR": "Y",
                  "CMPRESP": null,
                  "CMSTAT": "NOT DONE"
                }
              }
            ]
          },
          {
            "dataset": "ec.xpt",
            "domain": "EC",
            "execution_status": "success",
            "execution_message": "ECOCCUR should only be provided when ECPRESP is equal to \"Y\".",
            "number_errors": 3,
            "errors": [
              {
                "row": 1,
                "SEQ": 1,
                "USUBJID": "CDISC001",
                "value": {
                  "ECSTAT": null,
                  "ECPRESP": null,
                  "ECOCCUR": "Y"
                }
              },
              {
                "row": 2,
                "SEQ": 2,
                "USUBJID": "CDISC001",
                "value": {
                  "ECSTAT": "NOT DONE",
                  "ECPRESP": null,
                  "ECOCCUR": "Y"
                }
              },
              {
                "row": 3,
                "SEQ": 3,
                "USUBJID": "CDISC001",
                "value": {
                  "ECSTAT": null,
                  "ECPRESP": null,
                  "ECOCCUR": "N"
                }
              }
            ]
          },
          {
            "dataset": "ex.xpt",
            "domain": "EX",
            "execution_status": "skipped",
            "execution_message": "Rule skipped - doesn't apply to domain for rule id=CORE-000014, dataset=EX",
            "number_errors": 0,
            "errors": []
          },
          {
            "dataset": "ml.xpt",
            "domain": "ML",
            "execution_status": "success",
            "execution_message": "MLOCCUR should only be provided when MLPRESP is equal to \"Y\".",
            "number_errors": 2,
            "errors": [
              {
                "row": 1,
                "SEQ": 1,
                "USUBJID": "CDISC001",
                "value": {
                  "MLSTAT": null,
                  "MLPRESP": null,
                  "MLOCCUR": "Y"
                }
              },
              {
                "row": 2,
                "SEQ": 2,
                "USUBJID": "CDISC001",
                "value": {
                  "MLSTAT": "NOT DONE",
                  "MLPRESP": null,
                  "MLOCCUR": "Y"
                }
              }
            ]
          },
          {
            "dataset": "pr.xpt",
            "domain": "PR",
            "execution_status": "success",
            "execution_message": "PROCCUR should only be provided when PRPRESP is equal to \"Y\".",
            "number_errors": 2,
            "errors": [
              {
                "row": 1,
                "SEQ": 1,
                "USUBJID": "CDISC001",
                "value": {
                  "PRSTAT": null,
                  "PRPRESP": null,
                  "PROCCUR": "Y"
                }
              },
              {
                "row": 2,
                "SEQ": 2,
                "USUBJID": "CDISC001",
                "value": {
                  "PRSTAT": "NOT DONE",
                  "PRPRESP": null,
                  "PROCCUR": "Y"
                }
              }
            ]
          },
          {
            "dataset": "su.xpt",
            "domain": "SU",
            "execution_status": "success",
            "execution_message": "SUOCCUR should only be provided when SUPRESP is equal to \"Y\".",
            "number_errors": 2,
            "errors": [
              {
                "row": 1,
                "SEQ": 1,
                "USUBJID": "CDISC001",
                "value": {
                  "SUPRESP": null,
                  "SUOCCUR": "Y",
                  "SUSTAT": null
                }
              },
              {
                "row": 2,
                "SEQ": 2,
                "USUBJID": "CDISC001",
                "value": {
                  "SUPRESP": null,
                  "SUOCCUR": "Y",
                  "SUSTAT": "NOT DONE"
                }
              }
            ]
          },
          {
            "dataset": "ae.xpt",
            "domain": "AE",
            "execution_status": "skipped",
            "execution_message": "Rule skipped - doesn't apply to domain for rule id=CORE-000014, dataset=AE",
            "number_errors": 0,
            "errors": []
          },
          {
            "dataset": "be.xpt",
            "domain": "BE",
            "execution_status": "success",
            "execution_message": "BEOCCUR should only be provided when BEPRESP is equal to \"Y\".",
            "number_errors": 3,
            "errors": [
              {
                "row": 1,
                "SEQ": 1,
                "USUBJID": "CDISC001",
                "value": {
                  "BEOCCUR": "Y",
                  "BESTAT": null,
                  "BEPRESP": null
                }
              },
              {
                "row": 2,
                "SEQ": 2,
                "USUBJID": "CDISC001",
                "value": {
                  "BEOCCUR": "Y",
                  "BESTAT": "NOT DONE",
                  "BEPRESP": null
                }
              },
              {
                "row": 3,
                "SEQ": 3,
                "USUBJID": "CDISC001",
                "value": {
                  "BEOCCUR": "N",
                  "BESTAT": null,
                  "BEPRESP": null
                }
              }
            ]
          },
          {
            "dataset": "ce.xpt",
            "domain": "CE",
            "execution_status": "success",
            "execution_message": "CEOCCUR should only be provided when CEPRESP is equal to \"Y\".",
            "number_errors": 3,
            "errors": [
              {
                "row": 1,
                "SEQ": 1,
                "USUBJID": "CDISC001",
                "value": {
                  "CESTAT": null,
                  "CEPRESP": null,
                  "CEOCCUR": "Y"
                }
              },
              {
                "row": 2,
                "SEQ": 2,
                "USUBJID": "CDISC001",
                "value": {
                  "CESTAT": "NOT DONE",
                  "CEPRESP": null,
                  "CEOCCUR": "Y"
                }
              },
              {
                "row": 3,
                "SEQ": 3,
                "USUBJID": "CDISC001",
                "value": {
                  "CESTAT": null,
                  "CEPRESP": null,
                  "CEOCCUR": "N"
                }
              }
            ]
          },
          {
            "dataset": "ds.xpt",
            "domain": "DS",
            "execution_status": "skipped",
            "execution_message": "Rule skipped - doesn't apply to domain for rule id=CORE-000014, dataset=DS",
            "number_errors": 0,
            "errors": []
          },
          {
            "dataset": "dv.xpt",
            "domain": "DV",
            "execution_status": "skipped",
            "execution_message": "Rule skipped - doesn't apply to domain for rule id=CORE-000014, dataset=DV",
            "number_errors": 0,
            "errors": []
          },
          {
            "dataset": "ho.xpt",
            "domain": "HO",
            "execution_status": "success",
            "execution_message": "HOOCCUR should only be provided when HOPRESP is equal to \"Y\".",
            "number_errors": 3,
            "errors": [
              {
                "row": 1,
                "SEQ": 1,
                "USUBJID": "CDISC001",
                "value": {
                  "HOOCCUR": "Y",
                  "HOPRESP": null,
                  "HOSTAT": null
                }
              },
              {
                "row": 2,
                "SEQ": 2,
                "USUBJID": "CDISC001",
                "value": {
                  "HOOCCUR": "Y",
                  "HOPRESP": null,
                  "HOSTAT": "NOT DONE"
                }
              },
              {
                "row": 3,
                "SEQ": 3,
                "USUBJID": "CDISC001",
                "value": {
                  "HOOCCUR": "N",
                  "HOPRESP": null,
                  "HOSTAT": null
                }
              }
            ]
          },
          {
            "dataset": "mh.xpt",
            "domain": "MH",
            "execution_status": "success",
            "execution_message": "MHOCCUR should only be provided when MHPRESP is equal to \"Y\".",
            "number_errors": 3,
            "errors": [
              {
                "row": 1,
                "SEQ": 1,
                "USUBJID": "CDISC001",
                "value": {
                  "MHPRESP": null,
                  "MHSTAT": null,
                  "MHOCCUR": "Y"
                }
              },
              {
                "row": 2,
                "SEQ": 2,
                "USUBJID": "CDISC001",
                "value": {
                  "MHPRESP": null,
                  "MHSTAT": "NOT DONE",
                  "MHOCCUR": "Y"
                }
              },
              {
                "row": 3,
                "SEQ": 3,
                "USUBJID": "CDISC001",
                "value": {
                  "MHPRESP": null,
                  "MHSTAT": null,
                  "MHOCCUR": "N"
                }
              }
            ]
          }
        ],
        "old_vs_sql": {
          "equal": true
        },
        "whitelisted": false,
        "sql_overall_result": "success",
        "old_overall_result": "success",
        "validated_results_folder_exists": false,
        "validation_file": "",
        "validation_file_validation": "",
        "old_result_validation": "invalid",
        "sql_results_validation": "invalid"
      }
    }
  },
  "CORE-000015": {
    "positive": {
      "01": {
        "datasets_import_sql": "SUCCESS",
        "results_present_sql": true,
        "results_sql": [
          {
            "dataset": "ag.xpt",
            "domain": "AG",
            "execution_status": "success",
            "execution_message": null,
            "number_errors": 0,
            "errors": []
          },
          {
            "dataset": "cm.xpt",
            "domain": "CM",
            "execution_status": "success",
            "execution_message": null,
            "number_errors": 0,
            "errors": []
          },
          {
            "dataset": "ec.xpt",
            "domain": "EC",
            "execution_status": "success",
            "execution_message": null,
            "number_errors": 0,
            "errors": []
          },
          {
            "dataset": "ex.xpt",
            "domain": "EX",
            "execution_status": "skipped",
            "execution_message": "Rule skipped - doesn't apply to domain for rule id=CORE-000015, dataset=EX",
            "number_errors": 0,
            "errors": []
          },
          {
            "dataset": "ml.xpt",
            "domain": "ML",
            "execution_status": "success",
            "execution_message": null,
            "number_errors": 0,
            "errors": []
          },
          {
            "dataset": "pr.xpt",
            "domain": "PR",
            "execution_status": "success",
            "execution_message": null,
            "number_errors": 0,
            "errors": []
          },
          {
            "dataset": "su.xpt",
            "domain": "SU",
            "execution_status": "success",
            "execution_message": null,
            "number_errors": 0,
            "errors": []
          },
          {
            "dataset": "ae.xpt",
            "domain": "AE",
            "execution_status": "skipped",
            "execution_message": "Rule skipped - doesn't apply to domain for rule id=CORE-000015, dataset=AE",
            "number_errors": 0,
            "errors": []
          },
          {
            "dataset": "be.xpt",
            "domain": "BE",
            "execution_status": "success",
            "execution_message": null,
            "number_errors": 0,
            "errors": []
          },
          {
            "dataset": "ce.xpt",
            "domain": "CE",
            "execution_status": "success",
            "execution_message": null,
            "number_errors": 0,
            "errors": []
          },
          {
            "dataset": "ds.xpt",
            "domain": "DS",
            "execution_status": "skipped",
            "execution_message": "Rule skipped - doesn't apply to domain for rule id=CORE-000015, dataset=DS",
            "number_errors": 0,
            "errors": []
          },
          {
            "dataset": "dv.xpt",
            "domain": "DV",
            "execution_status": "skipped",
            "execution_message": "Rule skipped - doesn't apply to domain for rule id=CORE-000015, dataset=DV",
            "number_errors": 0,
            "errors": []
          },
          {
            "dataset": "ho.xpt",
            "domain": "HO",
            "execution_status": "success",
            "execution_message": null,
            "number_errors": 0,
            "errors": []
          },
          {
            "dataset": "mh.xpt",
            "domain": "MH",
            "execution_status": "success",
            "execution_message": null,
            "number_errors": 0,
            "errors": []
          }
        ],
        "dataset_import_old": "SUCCESS",
        "results_present_old": true,
        "results_old": [
          {
            "dataset": "ag.xpt",
            "domain": "AG",
            "execution_status": "success",
            "execution_message": null,
            "number_errors": 0,
            "errors": []
          },
          {
            "dataset": "cm.xpt",
            "domain": "CM",
            "execution_status": "success",
            "execution_message": null,
            "number_errors": 0,
            "errors": []
          },
          {
            "dataset": "ec.xpt",
            "domain": "EC",
            "execution_status": "success",
            "execution_message": null,
            "number_errors": 0,
            "errors": []
          },
          {
            "dataset": "ex.xpt",
            "domain": "EX",
            "execution_status": "skipped",
            "execution_message": "Rule skipped - doesn't apply to domain for rule id=CORE-000015, dataset=EX",
            "number_errors": 0,
            "errors": []
          },
          {
            "dataset": "ml.xpt",
            "domain": "ML",
            "execution_status": "success",
            "execution_message": null,
            "number_errors": 0,
            "errors": []
          },
          {
            "dataset": "pr.xpt",
            "domain": "PR",
            "execution_status": "success",
            "execution_message": null,
            "number_errors": 0,
            "errors": []
          },
          {
            "dataset": "su.xpt",
            "domain": "SU",
            "execution_status": "success",
            "execution_message": null,
            "number_errors": 0,
            "errors": []
          },
          {
            "dataset": "ae.xpt",
            "domain": "AE",
            "execution_status": "skipped",
            "execution_message": "Rule skipped - doesn't apply to domain for rule id=CORE-000015, dataset=AE",
            "number_errors": 0,
            "errors": []
          },
          {
            "dataset": "be.xpt",
            "domain": "BE",
            "execution_status": "success",
            "execution_message": null,
            "number_errors": 0,
            "errors": []
          },
          {
            "dataset": "ce.xpt",
            "domain": "CE",
            "execution_status": "success",
            "execution_message": null,
            "number_errors": 0,
            "errors": []
          },
          {
            "dataset": "ds.xpt",
            "domain": "DS",
            "execution_status": "skipped",
            "execution_message": "Rule skipped - doesn't apply to domain for rule id=CORE-000015, dataset=DS",
            "number_errors": 0,
            "errors": []
          },
          {
            "dataset": "dv.xpt",
            "domain": "DV",
            "execution_status": "skipped",
            "execution_message": "Rule skipped - doesn't apply to domain for rule id=CORE-000015, dataset=DV",
            "number_errors": 0,
            "errors": []
          },
          {
            "dataset": "ho.xpt",
            "domain": "HO",
            "execution_status": "success",
            "execution_message": null,
            "number_errors": 0,
            "errors": []
          },
          {
            "dataset": "mh.xpt",
            "domain": "MH",
            "execution_status": "success",
            "execution_message": null,
            "number_errors": 0,
            "errors": []
          }
        ],
        "old_vs_sql": {
          "equal": true
        },
        "whitelisted": false,
        "sql_overall_result": "success",
        "old_overall_result": "success",
        "validated_results_folder_exists": false,
        "validation_file": "",
        "validation_file_validation": "",
        "old_result_validation": "invalid",
        "sql_results_validation": "invalid"
      }
    },
    "negative": {
      "01": {
        "datasets_import_sql": "SUCCESS",
        "results_present_sql": true,
        "results_sql": [
          {
            "dataset": "ag.xpt",
            "domain": "AG",
            "execution_status": "success",
            "execution_message": "AGPRESP is missing in dataset when AGOCCUR is present.",
            "number_errors": 1,
            "errors": [
              {
                "row": null,
                "SEQ": null,
                "USUBJID": null,
                "value": {
                  "AGPRESP": "Not in dataset",
                  "AGOCCUR": null
                }
              }
            ]
          },
          {
            "dataset": "cm.xpt",
            "domain": "CM",
            "execution_status": "success",
            "execution_message": "CMPRESP is missing in dataset when CMOCCUR is present.",
            "number_errors": 1,
            "errors": [
              {
                "row": null,
                "SEQ": null,
                "USUBJID": null,
                "value": {
                  "CMPRESP": "Not in dataset",
                  "CMOCCUR": null
                }
              }
            ]
          },
          {
            "dataset": "ec.xpt",
            "domain": "EC",
            "execution_status": "success",
            "execution_message": "ECPRESP is missing in dataset when ECOCCUR is present.",
            "number_errors": 1,
            "errors": [
              {
                "row": null,
                "SEQ": null,
                "USUBJID": null,
                "value": {
                  "ECPRESP": "Not in dataset",
                  "ECOCCUR": null
                }
              }
            ]
          },
          {
            "dataset": "ex.xpt",
            "domain": "EX",
            "execution_status": "skipped",
            "execution_message": "Rule skipped - doesn't apply to domain for rule id=CORE-000015, dataset=EX",
            "number_errors": 0,
            "errors": []
          },
          {
            "dataset": "ml.xpt",
            "domain": "ML",
            "execution_status": "success",
            "execution_message": "MLPRESP is missing in dataset when MLOCCUR is present.",
            "number_errors": 1,
            "errors": [
              {
                "row": null,
                "SEQ": null,
                "USUBJID": null,
                "value": {
                  "MLPRESP": "Not in dataset",
                  "MLOCCUR": null
                }
              }
            ]
          },
          {
            "dataset": "pr.xpt",
            "domain": "PR",
            "execution_status": "success",
            "execution_message": "PRPRESP is missing in dataset when PROCCUR is present.",
            "number_errors": 1,
            "errors": [
              {
                "row": null,
                "SEQ": null,
                "USUBJID": null,
                "value": {
                  "PRPRESP": "Not in dataset",
                  "PROCCUR": null
                }
              }
            ]
          },
          {
            "dataset": "su.xpt",
            "domain": "SU",
            "execution_status": "success",
            "execution_message": "SUPRESP is missing in dataset when SUOCCUR is present.",
            "number_errors": 1,
            "errors": [
              {
                "row": null,
                "SEQ": null,
                "USUBJID": null,
                "value": {
                  "SUPRESP": "Not in dataset",
                  "SUOCCUR": null
                }
              }
            ]
          },
          {
            "dataset": "ae.xpt",
            "domain": "AE",
            "execution_status": "skipped",
            "execution_message": "Rule skipped - doesn't apply to domain for rule id=CORE-000015, dataset=AE",
            "number_errors": 0,
            "errors": []
          },
          {
            "dataset": "be.xpt",
            "domain": "BE",
            "execution_status": "success",
            "execution_message": "BEPRESP is missing in dataset when BEOCCUR is present.",
            "number_errors": 1,
            "errors": [
              {
                "row": null,
                "SEQ": null,
                "USUBJID": null,
                "value": {
                  "BEPRESP": "Not in dataset",
                  "BEOCCUR": null
                }
              }
            ]
          },
          {
            "dataset": "ce.xpt",
            "domain": "CE",
            "execution_status": "success",
            "execution_message": "CEPRESP is missing in dataset when CEOCCUR is present.",
            "number_errors": 1,
            "errors": [
              {
                "row": null,
                "SEQ": null,
                "USUBJID": null,
                "value": {
                  "CEPRESP": "Not in dataset",
                  "CEOCCUR": null
                }
              }
            ]
          },
          {
            "dataset": "ds.xpt",
            "domain": "DS",
            "execution_status": "skipped",
            "execution_message": "Rule skipped - doesn't apply to domain for rule id=CORE-000015, dataset=DS",
            "number_errors": 0,
            "errors": []
          },
          {
            "dataset": "dv.xpt",
            "domain": "DV",
            "execution_status": "skipped",
            "execution_message": "Rule skipped - doesn't apply to domain for rule id=CORE-000015, dataset=DV",
            "number_errors": 0,
            "errors": []
          },
          {
            "dataset": "ho.xpt",
            "domain": "HO",
            "execution_status": "success",
            "execution_message": "HOPRESP is missing in dataset when HOOCCUR is present.",
            "number_errors": 1,
            "errors": [
              {
                "row": null,
                "SEQ": null,
                "USUBJID": null,
                "value": {
                  "HOPRESP": "Not in dataset",
                  "HOOCCUR": null
                }
              }
            ]
          },
          {
            "dataset": "mh.xpt",
            "domain": "MH",
            "execution_status": "success",
            "execution_message": "MHPRESP is missing in dataset when MHOCCUR is present.",
            "number_errors": 1,
            "errors": [
              {
                "row": null,
                "SEQ": null,
                "USUBJID": null,
                "value": {
                  "MHPRESP": "Not in dataset",
                  "MHOCCUR": null
                }
              }
            ]
          }
        ],
        "dataset_import_old": "SUCCESS",
        "results_present_old": true,
        "results_old": [
          {
            "dataset": "ag.xpt",
            "domain": "AG",
            "execution_status": "success",
            "execution_message": "AGPRESP is missing in dataset when AGOCCUR is present.",
            "number_errors": 1,
            "errors": [
              {
                "row": null,
                "SEQ": null,
                "USUBJID": null,
                "value": {
                  "AGOCCUR": null
                }
              }
            ]
          },
          {
            "dataset": "cm.xpt",
            "domain": "CM",
            "execution_status": "success",
            "execution_message": "CMPRESP is missing in dataset when CMOCCUR is present.",
            "number_errors": 1,
            "errors": [
              {
                "row": null,
                "SEQ": null,
                "USUBJID": null,
                "value": {
                  "CMOCCUR": null
                }
              }
            ]
          },
          {
            "dataset": "ec.xpt",
            "domain": "EC",
            "execution_status": "success",
            "execution_message": "ECPRESP is missing in dataset when ECOCCUR is present.",
            "number_errors": 1,
            "errors": [
              {
                "row": null,
                "SEQ": null,
                "USUBJID": null,
                "value": {
                  "ECOCCUR": null
                }
              }
            ]
          },
          {
            "dataset": "ex.xpt",
            "domain": "EX",
            "execution_status": "skipped",
            "execution_message": "Rule skipped - doesn't apply to domain for rule id=CORE-000015, dataset=EX",
            "number_errors": 0,
            "errors": []
          },
          {
            "dataset": "ml.xpt",
            "domain": "ML",
            "execution_status": "success",
            "execution_message": "MLPRESP is missing in dataset when MLOCCUR is present.",
            "number_errors": 1,
            "errors": [
              {
                "row": null,
                "SEQ": null,
                "USUBJID": null,
                "value": {
                  "MLOCCUR": null
                }
              }
            ]
          },
          {
            "dataset": "pr.xpt",
            "domain": "PR",
            "execution_status": "success",
            "execution_message": "PRPRESP is missing in dataset when PROCCUR is present.",
            "number_errors": 1,
            "errors": [
              {
                "row": null,
                "SEQ": null,
                "USUBJID": null,
                "value": {
                  "PROCCUR": null
                }
              }
            ]
          },
          {
            "dataset": "su.xpt",
            "domain": "SU",
            "execution_status": "success",
            "execution_message": "SUPRESP is missing in dataset when SUOCCUR is present.",
            "number_errors": 1,
            "errors": [
              {
                "row": null,
                "SEQ": null,
                "USUBJID": null,
                "value": {
                  "SUOCCUR": null
                }
              }
            ]
          },
          {
            "dataset": "ae.xpt",
            "domain": "AE",
            "execution_status": "skipped",
            "execution_message": "Rule skipped - doesn't apply to domain for rule id=CORE-000015, dataset=AE",
            "number_errors": 0,
            "errors": []
          },
          {
            "dataset": "be.xpt",
            "domain": "BE",
            "execution_status": "success",
            "execution_message": "BEPRESP is missing in dataset when BEOCCUR is present.",
            "number_errors": 1,
            "errors": [
              {
                "row": null,
                "SEQ": null,
                "USUBJID": null,
                "value": {
                  "BEOCCUR": null
                }
              }
            ]
          },
          {
            "dataset": "ce.xpt",
            "domain": "CE",
            "execution_status": "success",
            "execution_message": "CEPRESP is missing in dataset when CEOCCUR is present.",
            "number_errors": 1,
            "errors": [
              {
                "row": null,
                "SEQ": null,
                "USUBJID": null,
                "value": {
                  "CEOCCUR": null
                }
              }
            ]
          },
          {
            "dataset": "ds.xpt",
            "domain": "DS",
            "execution_status": "skipped",
            "execution_message": "Rule skipped - doesn't apply to domain for rule id=CORE-000015, dataset=DS",
            "number_errors": 0,
            "errors": []
          },
          {
            "dataset": "dv.xpt",
            "domain": "DV",
            "execution_status": "skipped",
            "execution_message": "Rule skipped - doesn't apply to domain for rule id=CORE-000015, dataset=DV",
            "number_errors": 0,
            "errors": []
          },
          {
            "dataset": "ho.xpt",
            "domain": "HO",
            "execution_status": "success",
            "execution_message": "HOPRESP is missing in dataset when HOOCCUR is present.",
            "number_errors": 1,
            "errors": [
              {
                "row": null,
                "SEQ": null,
                "USUBJID": null,
                "value": {
                  "HOOCCUR": null
                }
              }
            ]
          },
          {
            "dataset": "mh.xpt",
            "domain": "MH",
            "execution_status": "success",
            "execution_message": "MHPRESP is missing in dataset when MHOCCUR is present.",
            "number_errors": 1,
            "errors": [
              {
                "row": null,
                "SEQ": null,
                "USUBJID": null,
                "value": {
                  "MHOCCUR": null
                }
              }
            ]
          }
        ],
        "old_vs_sql": {
          "dataset_mismatch": false,
          "execution_status_mismatch": false,
          "number_of_errors_mismatch": false,
          "diff": {
            "ag.xpt": {
              "dictionary_item_added": ["root[0]['value']['AGPRESP']"]
            },
            "cm.xpt": {
              "dictionary_item_added": ["root[0]['value']['CMPRESP']"]
            },
            "ec.xpt": {
              "dictionary_item_added": ["root[0]['value']['ECPRESP']"]
            },
            "ml.xpt": {
              "dictionary_item_added": ["root[0]['value']['MLPRESP']"]
            },
            "pr.xpt": {
              "dictionary_item_added": ["root[0]['value']['PRPRESP']"]
            },
            "su.xpt": {
              "dictionary_item_added": ["root[0]['value']['SUPRESP']"]
            },
            "be.xpt": {
              "dictionary_item_added": ["root[0]['value']['BEPRESP']"]
            },
            "ce.xpt": {
              "dictionary_item_added": ["root[0]['value']['CEPRESP']"]
            },
            "ho.xpt": {
              "dictionary_item_added": ["root[0]['value']['HOPRESP']"]
            },
            "mh.xpt": {
              "dictionary_item_added": ["root[0]['value']['MHPRESP']"]
            }
          }
        },
        "whitelisted": false,
        "sql_overall_result": "success",
        "old_overall_result": "success",
        "validated_results_folder_exists": false,
        "validation_file": "",
        "validation_file_validation": "",
        "old_result_validation": "invalid",
        "sql_results_validation": "invalid"
      }
    }
  },
  "CORE-000016": {
    "positive": {
      "01": {
        "datasets_import_sql": "SUCCESS",
        "results_present_sql": true,
        "results_sql": [
          {
            "dataset": "ag.xpt",
            "domain": "AG",
            "execution_status": "success",
            "execution_message": null,
            "number_errors": 0,
            "errors": []
          },
          {
            "dataset": "cm.xpt",
            "domain": "CM",
            "execution_status": "success",
            "execution_message": null,
            "number_errors": 0,
            "errors": []
          },
          {
            "dataset": "ec.xpt",
            "domain": "EC",
            "execution_status": "success",
            "execution_message": null,
            "number_errors": 0,
            "errors": []
          },
          {
            "dataset": "ex.xpt",
            "domain": "EX",
            "execution_status": "skipped",
            "execution_message": "Rule skipped - doesn't apply to domain for rule id=CORE-000016, dataset=EX",
            "number_errors": 0,
            "errors": []
          },
          {
            "dataset": "ml.xpt",
            "domain": "ML",
            "execution_status": "success",
            "execution_message": null,
            "number_errors": 0,
            "errors": []
          },
          {
            "dataset": "pr.xpt",
            "domain": "PR",
            "execution_status": "success",
            "execution_message": null,
            "number_errors": 0,
            "errors": []
          },
          {
            "dataset": "su.xpt",
            "domain": "SU",
            "execution_status": "success",
            "execution_message": null,
            "number_errors": 0,
            "errors": []
          },
          {
            "dataset": "ae.xpt",
            "domain": "AE",
            "execution_status": "skipped",
            "execution_message": "Rule skipped - doesn't apply to domain for rule id=CORE-000016, dataset=AE",
            "number_errors": 0,
            "errors": []
          },
          {
            "dataset": "be.xpt",
            "domain": "BE",
            "execution_status": "success",
            "execution_message": null,
            "number_errors": 0,
            "errors": []
          },
          {
            "dataset": "ce.xpt",
            "domain": "CE",
            "execution_status": "success",
            "execution_message": null,
            "number_errors": 0,
            "errors": []
          },
          {
            "dataset": "ds.xpt",
            "domain": "DS",
            "execution_status": "skipped",
            "execution_message": "Rule skipped - doesn't apply to domain for rule id=CORE-000016, dataset=DS",
            "number_errors": 0,
            "errors": []
          },
          {
            "dataset": "dv.xpt",
            "domain": "DV",
            "execution_status": "skipped",
            "execution_message": "Rule skipped - doesn't apply to domain for rule id=CORE-000016, dataset=DV",
            "number_errors": 0,
            "errors": []
          },
          {
            "dataset": "ho.xpt",
            "domain": "HO",
            "execution_status": "success",
            "execution_message": null,
            "number_errors": 0,
            "errors": []
          },
          {
            "dataset": "mh.xpt",
            "domain": "MH",
            "execution_status": "success",
            "execution_message": null,
            "number_errors": 0,
            "errors": []
          }
        ],
        "dataset_import_old": "SUCCESS",
        "results_present_old": true,
        "results_old": [
          {
            "dataset": "ag.xpt",
            "domain": "AG",
            "execution_status": "success",
            "execution_message": null,
            "number_errors": 0,
            "errors": []
          },
          {
            "dataset": "cm.xpt",
            "domain": "CM",
            "execution_status": "success",
            "execution_message": null,
            "number_errors": 0,
            "errors": []
          },
          {
            "dataset": "ec.xpt",
            "domain": "EC",
            "execution_status": "success",
            "execution_message": null,
            "number_errors": 0,
            "errors": []
          },
          {
            "dataset": "ex.xpt",
            "domain": "EX",
            "execution_status": "skipped",
            "execution_message": "Rule skipped - doesn't apply to domain for rule id=CORE-000016, dataset=EX",
            "number_errors": 0,
            "errors": []
          },
          {
            "dataset": "ml.xpt",
            "domain": "ML",
            "execution_status": "success",
            "execution_message": null,
            "number_errors": 0,
            "errors": []
          },
          {
            "dataset": "pr.xpt",
            "domain": "PR",
            "execution_status": "success",
            "execution_message": null,
            "number_errors": 0,
            "errors": []
          },
          {
            "dataset": "su.xpt",
            "domain": "SU",
            "execution_status": "success",
            "execution_message": null,
            "number_errors": 0,
            "errors": []
          },
          {
            "dataset": "ae.xpt",
            "domain": "AE",
            "execution_status": "skipped",
            "execution_message": "Rule skipped - doesn't apply to domain for rule id=CORE-000016, dataset=AE",
            "number_errors": 0,
            "errors": []
          },
          {
            "dataset": "be.xpt",
            "domain": "BE",
            "execution_status": "success",
            "execution_message": null,
            "number_errors": 0,
            "errors": []
          },
          {
            "dataset": "ce.xpt",
            "domain": "CE",
            "execution_status": "success",
            "execution_message": null,
            "number_errors": 0,
            "errors": []
          },
          {
            "dataset": "ds.xpt",
            "domain": "DS",
            "execution_status": "skipped",
            "execution_message": "Rule skipped - doesn't apply to domain for rule id=CORE-000016, dataset=DS",
            "number_errors": 0,
            "errors": []
          },
          {
            "dataset": "dv.xpt",
            "domain": "DV",
            "execution_status": "skipped",
            "execution_message": "Rule skipped - doesn't apply to domain for rule id=CORE-000016, dataset=DV",
            "number_errors": 0,
            "errors": []
          },
          {
            "dataset": "ho.xpt",
            "domain": "HO",
            "execution_status": "success",
            "execution_message": null,
            "number_errors": 0,
            "errors": []
          },
          {
            "dataset": "mh.xpt",
            "domain": "MH",
            "execution_status": "success",
            "execution_message": null,
            "number_errors": 0,
            "errors": []
          }
        ],
        "old_vs_sql": {
          "equal": true
        },
        "whitelisted": false,
        "sql_overall_result": "success",
        "old_overall_result": "success",
        "validated_results_folder_exists": false,
        "validation_file": "",
        "validation_file_validation": "",
        "old_result_validation": "invalid",
        "sql_results_validation": "invalid"
      },
      "02": {
        "datasets_import_sql": "SUCCESS",
        "results_present_sql": true,
        "results_sql": [
          {
            "dataset": "ag.xpt",
            "domain": "AG",
            "execution_status": "success",
            "execution_message": null,
            "number_errors": 0,
            "errors": []
          },
          {
            "dataset": "cm.xpt",
            "domain": "CM",
            "execution_status": "success",
            "execution_message": null,
            "number_errors": 0,
            "errors": []
          },
          {
            "dataset": "ec.xpt",
            "domain": "EC",
            "execution_status": "success",
            "execution_message": null,
            "number_errors": 0,
            "errors": []
          },
          {
            "dataset": "ex.xpt",
            "domain": "EX",
            "execution_status": "skipped",
            "execution_message": "Rule skipped - doesn't apply to domain for rule id=CORE-000016, dataset=EX",
            "number_errors": 0,
            "errors": []
          },
          {
            "dataset": "ml.xpt",
            "domain": "ML",
            "execution_status": "success",
            "execution_message": null,
            "number_errors": 0,
            "errors": []
          },
          {
            "dataset": "pr.xpt",
            "domain": "PR",
            "execution_status": "success",
            "execution_message": null,
            "number_errors": 0,
            "errors": []
          },
          {
            "dataset": "su.xpt",
            "domain": "SU",
            "execution_status": "success",
            "execution_message": null,
            "number_errors": 0,
            "errors": []
          },
          {
            "dataset": "ae.xpt",
            "domain": "AE",
            "execution_status": "skipped",
            "execution_message": "Rule skipped - doesn't apply to domain for rule id=CORE-000016, dataset=AE",
            "number_errors": 0,
            "errors": []
          },
          {
            "dataset": "be.xpt",
            "domain": "BE",
            "execution_status": "success",
            "execution_message": null,
            "number_errors": 0,
            "errors": []
          },
          {
            "dataset": "ce.xpt",
            "domain": "CE",
            "execution_status": "success",
            "execution_message": null,
            "number_errors": 0,
            "errors": []
          },
          {
            "dataset": "ds.xpt",
            "domain": "DS",
            "execution_status": "skipped",
            "execution_message": "Rule skipped - doesn't apply to domain for rule id=CORE-000016, dataset=DS",
            "number_errors": 0,
            "errors": []
          },
          {
            "dataset": "dv.xpt",
            "domain": "DV",
            "execution_status": "skipped",
            "execution_message": "Rule skipped - doesn't apply to domain for rule id=CORE-000016, dataset=DV",
            "number_errors": 0,
            "errors": []
          },
          {
            "dataset": "ho.xpt",
            "domain": "HO",
            "execution_status": "success",
            "execution_message": null,
            "number_errors": 0,
            "errors": []
          },
          {
            "dataset": "mh.xpt",
            "domain": "MH",
            "execution_status": "success",
            "execution_message": null,
            "number_errors": 0,
            "errors": []
          }
        ],
        "dataset_import_old": "SUCCESS",
        "results_present_old": true,
        "results_old": [
          {
            "dataset": "ag.xpt",
            "domain": "AG",
            "execution_status": "success",
            "execution_message": null,
            "number_errors": 0,
            "errors": []
          },
          {
            "dataset": "cm.xpt",
            "domain": "CM",
            "execution_status": "success",
            "execution_message": null,
            "number_errors": 0,
            "errors": []
          },
          {
            "dataset": "ec.xpt",
            "domain": "EC",
            "execution_status": "success",
            "execution_message": null,
            "number_errors": 0,
            "errors": []
          },
          {
            "dataset": "ex.xpt",
            "domain": "EX",
            "execution_status": "skipped",
            "execution_message": "Rule skipped - doesn't apply to domain for rule id=CORE-000016, dataset=EX",
            "number_errors": 0,
            "errors": []
          },
          {
            "dataset": "ml.xpt",
            "domain": "ML",
            "execution_status": "success",
            "execution_message": null,
            "number_errors": 0,
            "errors": []
          },
          {
            "dataset": "pr.xpt",
            "domain": "PR",
            "execution_status": "success",
            "execution_message": null,
            "number_errors": 0,
            "errors": []
          },
          {
            "dataset": "su.xpt",
            "domain": "SU",
            "execution_status": "success",
            "execution_message": null,
            "number_errors": 0,
            "errors": []
          },
          {
            "dataset": "ae.xpt",
            "domain": "AE",
            "execution_status": "skipped",
            "execution_message": "Rule skipped - doesn't apply to domain for rule id=CORE-000016, dataset=AE",
            "number_errors": 0,
            "errors": []
          },
          {
            "dataset": "be.xpt",
            "domain": "BE",
            "execution_status": "success",
            "execution_message": null,
            "number_errors": 0,
            "errors": []
          },
          {
            "dataset": "ce.xpt",
            "domain": "CE",
            "execution_status": "success",
            "execution_message": null,
            "number_errors": 0,
            "errors": []
          },
          {
            "dataset": "ds.xpt",
            "domain": "DS",
            "execution_status": "skipped",
            "execution_message": "Rule skipped - doesn't apply to domain for rule id=CORE-000016, dataset=DS",
            "number_errors": 0,
            "errors": []
          },
          {
            "dataset": "dv.xpt",
            "domain": "DV",
            "execution_status": "skipped",
            "execution_message": "Rule skipped - doesn't apply to domain for rule id=CORE-000016, dataset=DV",
            "number_errors": 0,
            "errors": []
          },
          {
            "dataset": "ho.xpt",
            "domain": "HO",
            "execution_status": "success",
            "execution_message": null,
            "number_errors": 0,
            "errors": []
          },
          {
            "dataset": "mh.xpt",
            "domain": "MH",
            "execution_status": "success",
            "execution_message": null,
            "number_errors": 0,
            "errors": []
          }
        ],
        "old_vs_sql": {
          "equal": true
        },
        "whitelisted": false,
        "sql_overall_result": "success",
        "old_overall_result": "success",
        "validated_results_folder_exists": false,
        "validation_file": "",
        "validation_file_validation": "",
        "old_result_validation": "invalid",
        "sql_results_validation": "invalid"
      }
    },
    "negative": {
      "01": {
        "datasets_import_sql": "SUCCESS",
        "results_present_sql": true,
        "results_sql": [
          {
            "dataset": "ag.xpt",
            "domain": "AG",
            "execution_status": "success",
            "execution_message": "AGPRESP should be populated as \"Y\" when AGOCCUR is provided.",
            "number_errors": 3,
            "errors": [
              {
                "row": 1,
                "SEQ": 1,
                "USUBJID": "CDISC001",
                "value": {
                  "AGPRESP": null,
                  "AGOCCUR": "Y"
                }
              },
              {
                "row": 2,
                "SEQ": 2,
                "USUBJID": "CDISC001",
                "value": {
                  "AGPRESP": null,
                  "AGOCCUR": "N"
                }
              },
              {
                "row": 3,
                "SEQ": 3,
                "USUBJID": "CDISC001",
                "value": {
                  "AGPRESP": null,
                  "AGOCCUR": "Y"
                }
              }
            ]
          },
          {
            "dataset": "cm.xpt",
            "domain": "CM",
            "execution_status": "success",
            "execution_message": "CMPRESP should be populated as \"Y\" when CMOCCUR is provided.",
            "number_errors": 3,
            "errors": [
              {
                "row": 1,
                "SEQ": 1,
                "USUBJID": "CDISC001",
                "value": {
                  "CMPRESP": null,
                  "CMOCCUR": "Y"
                }
              },
              {
                "row": 2,
                "SEQ": 2,
                "USUBJID": "CDISC001",
                "value": {
                  "CMPRESP": null,
                  "CMOCCUR": "N"
                }
              },
              {
                "row": 3,
                "SEQ": 3,
                "USUBJID": "CDISC001",
                "value": {
                  "CMPRESP": null,
                  "CMOCCUR": "Y"
                }
              }
            ]
          },
          {
            "dataset": "ec.xpt",
            "domain": "EC",
            "execution_status": "success",
            "execution_message": "ECPRESP should be populated as \"Y\" when ECOCCUR is provided.",
            "number_errors": 3,
            "errors": [
              {
                "row": 1,
                "SEQ": 1,
                "USUBJID": "CDISC001",
                "value": {
                  "ECPRESP": null,
                  "ECOCCUR": "Y"
                }
              },
              {
                "row": 2,
                "SEQ": 2,
                "USUBJID": "CDISC001",
                "value": {
                  "ECPRESP": null,
                  "ECOCCUR": "N"
                }
              },
              {
                "row": 3,
                "SEQ": 3,
                "USUBJID": "CDISC001",
                "value": {
                  "ECPRESP": null,
                  "ECOCCUR": "Y"
                }
              }
            ]
          },
          {
            "dataset": "ex.xpt",
            "domain": "EX",
            "execution_status": "success",
            "execution_message": null,
            "number_errors": 0,
            "errors": []
          },
          {
            "dataset": "ml.xpt",
            "domain": "ML",
            "execution_status": "success",
            "execution_message": "MLPRESP should be populated as \"Y\" when MLOCCUR is provided.",
            "number_errors": 3,
            "errors": [
              {
                "row": 1,
                "SEQ": 1,
                "USUBJID": "CDISC001",
                "value": {
                  "MLPRESP": null,
                  "MLOCCUR": "Y"
                }
              },
              {
                "row": 2,
                "SEQ": 2,
                "USUBJID": "CDISC001",
                "value": {
                  "MLPRESP": null,
                  "MLOCCUR": "N"
                }
              },
              {
                "row": 3,
                "SEQ": 3,
                "USUBJID": "CDISC001",
                "value": {
                  "MLPRESP": null,
                  "MLOCCUR": "Y"
                }
              }
            ]
          },
          {
            "dataset": "pr.xpt",
            "domain": "PR",
            "execution_status": "success",
            "execution_message": "PRPRESP should be populated as \"Y\" when PROCCUR is provided.",
            "number_errors": 3,
            "errors": [
              {
                "row": 1,
                "SEQ": 1,
                "USUBJID": "CDISC001",
                "value": {
                  "PRPRESP": null,
                  "PROCCUR": "Y"
                }
              },
              {
                "row": 2,
                "SEQ": 2,
                "USUBJID": "CDISC001",
                "value": {
                  "PRPRESP": null,
                  "PROCCUR": "N"
                }
              },
              {
                "row": 3,
                "SEQ": 3,
                "USUBJID": "CDISC001",
                "value": {
                  "PRPRESP": null,
                  "PROCCUR": "Y"
                }
              }
            ]
          },
          {
            "dataset": "su.xpt",
            "domain": "SU",
            "execution_status": "success",
            "execution_message": "SUPRESP should be populated as \"Y\" when SUOCCUR is provided.",
            "number_errors": 3,
            "errors": [
              {
                "row": 1,
                "SEQ": 1,
                "USUBJID": "CDISC001",
                "value": {
                  "SUPRESP": null,
                  "SUOCCUR": "Y"
                }
              },
              {
                "row": 2,
                "SEQ": 2,
                "USUBJID": "CDISC001",
                "value": {
                  "SUPRESP": null,
                  "SUOCCUR": "N"
                }
              },
              {
                "row": 3,
                "SEQ": 3,
                "USUBJID": "CDISC001",
                "value": {
                  "SUPRESP": null,
                  "SUOCCUR": "N"
                }
              }
            ]
          },
          {
            "dataset": "ae.xpt",
            "domain": "AE",
            "execution_status": "success",
            "execution_message": null,
            "number_errors": 0,
            "errors": []
          },
          {
            "dataset": "be.xpt",
            "domain": "BE",
            "execution_status": "success",
            "execution_message": "BEPRESP should be populated as \"Y\" when BEOCCUR is provided.",
            "number_errors": 4,
            "errors": [
              {
                "row": 1,
                "SEQ": 1,
                "USUBJID": "CDISC001",
                "value": {
                  "BEPRESP": null,
                  "BEOCCUR": "Y"
                }
              },
              {
                "row": 2,
                "SEQ": 2,
                "USUBJID": "CDISC001",
                "value": {
                  "BEPRESP": null,
                  "BEOCCUR": "N"
                }
              },
              {
                "row": 3,
                "SEQ": 3,
                "USUBJID": "CDISC001",
                "value": {
                  "BEPRESP": null,
                  "BEOCCUR": "Y"
                }
              },
              {
                "row": 4,
                "SEQ": 4,
                "USUBJID": "CDISC001",
                "value": {
                  "BEPRESP": null,
                  "BEOCCUR": "N"
                }
              }
            ]
          },
          {
            "dataset": "ce.xpt",
            "domain": "CE",
            "execution_status": "success",
            "execution_message": "CEPRESP should be populated as \"Y\" when CEOCCUR is provided.",
            "number_errors": 4,
            "errors": [
              {
                "row": 1,
                "SEQ": 1,
                "USUBJID": "CDISC001",
                "value": {
                  "CEPRESP": null,
                  "CEOCCUR": "Y"
                }
              },
              {
                "row": 2,
                "SEQ": 2,
                "USUBJID": "CDISC001",
                "value": {
                  "CEPRESP": null,
                  "CEOCCUR": "Y"
                }
              },
              {
                "row": 3,
                "SEQ": 3,
                "USUBJID": "CDISC001",
                "value": {
                  "CEPRESP": null,
                  "CEOCCUR": "Y"
                }
              },
              {
                "row": 4,
                "SEQ": 4,
                "USUBJID": "CDISC001",
                "value": {
                  "CEPRESP": null,
                  "CEOCCUR": "N"
                }
              }
            ]
          },
          {
            "dataset": "ds.xpt",
            "domain": "DS",
            "execution_status": "success",
            "execution_message": null,
            "number_errors": 0,
            "errors": []
          },
          {
            "dataset": "dv.xpt",
            "domain": "DV",
            "execution_status": "success",
            "execution_message": null,
            "number_errors": 0,
            "errors": []
          },
          {
            "dataset": "ho.xpt",
            "domain": "HO",
            "execution_status": "success",
            "execution_message": "HOPRESP should be populated as \"Y\" when HOOCCUR is provided.",
            "number_errors": 4,
            "errors": [
              {
                "row": 1,
                "SEQ": 1,
                "USUBJID": "CDISC001",
                "value": {
                  "HOPRESP": null,
                  "HOOCCUR": "Y"
                }
              },
              {
                "row": 2,
                "SEQ": 2,
                "USUBJID": "CDISC001",
                "value": {
                  "HOPRESP": null,
                  "HOOCCUR": "Y"
                }
              },
              {
                "row": 3,
                "SEQ": 3,
                "USUBJID": "CDISC001",
                "value": {
                  "HOPRESP": null,
                  "HOOCCUR": "Y"
                }
              },
              {
                "row": 4,
                "SEQ": 1,
                "USUBJID": "CDISC002",
                "value": {
                  "HOPRESP": null,
                  "HOOCCUR": "N"
                }
              }
            ]
          },
          {
            "dataset": "mh.xpt",
            "domain": "MH",
            "execution_status": "success",
            "execution_message": "MHPRESP should be populated as \"Y\" when MHOCCUR is provided.",
            "number_errors": 4,
            "errors": [
              {
                "row": 1,
                "SEQ": 1,
                "USUBJID": "CDISC001",
                "value": {
                  "MHPRESP": null,
                  "MHOCCUR": "Y"
                }
              },
              {
                "row": 2,
                "SEQ": 2,
                "USUBJID": "CDISC001",
                "value": {
                  "MHPRESP": null,
                  "MHOCCUR": "Y"
                }
              },
              {
                "row": 3,
                "SEQ": 3,
                "USUBJID": "CDISC001",
                "value": {
                  "MHPRESP": null,
                  "MHOCCUR": "Y"
                }
              },
              {
                "row": 4,
                "SEQ": 1,
                "USUBJID": "CDISC002",
                "value": {
                  "MHPRESP": null,
                  "MHOCCUR": "N"
                }
              }
            ]
          }
        ],
        "dataset_import_old": "SUCCESS",
        "results_present_old": true,
        "results_old": [
          {
            "dataset": "ag.xpt",
            "domain": "AG",
            "execution_status": "success",
            "execution_message": "AGPRESP should be populated as \"Y\" when AGOCCUR is provided.",
            "number_errors": 3,
            "errors": [
              {
                "row": 1,
                "SEQ": 1,
                "USUBJID": "CDISC001",
                "value": {
                  "AGPRESP": null,
                  "AGOCCUR": "Y"
                }
              },
              {
                "row": 2,
                "SEQ": 2,
                "USUBJID": "CDISC001",
                "value": {
                  "AGPRESP": null,
                  "AGOCCUR": "N"
                }
              },
              {
                "row": 3,
                "SEQ": 3,
                "USUBJID": "CDISC001",
                "value": {
                  "AGPRESP": null,
                  "AGOCCUR": "Y"
                }
              }
            ]
          },
          {
            "dataset": "cm.xpt",
            "domain": "CM",
            "execution_status": "success",
            "execution_message": "CMPRESP should be populated as \"Y\" when CMOCCUR is provided.",
            "number_errors": 3,
            "errors": [
              {
                "row": 1,
                "SEQ": 1,
                "USUBJID": "CDISC001",
                "value": {
                  "CMOCCUR": "Y",
                  "CMPRESP": null
                }
              },
              {
                "row": 2,
                "SEQ": 2,
                "USUBJID": "CDISC001",
                "value": {
                  "CMOCCUR": "N",
                  "CMPRESP": null
                }
              },
              {
                "row": 3,
                "SEQ": 3,
                "USUBJID": "CDISC001",
                "value": {
                  "CMOCCUR": "Y",
                  "CMPRESP": null
                }
              }
            ]
          },
          {
            "dataset": "ec.xpt",
            "domain": "EC",
            "execution_status": "success",
            "execution_message": "ECPRESP should be populated as \"Y\" when ECOCCUR is provided.",
            "number_errors": 3,
            "errors": [
              {
                "row": 1,
                "SEQ": 1,
                "USUBJID": "CDISC001",
                "value": {
                  "ECPRESP": null,
                  "ECOCCUR": "Y"
                }
              },
              {
                "row": 2,
                "SEQ": 2,
                "USUBJID": "CDISC001",
                "value": {
                  "ECPRESP": null,
                  "ECOCCUR": "N"
                }
              },
              {
                "row": 3,
                "SEQ": 3,
                "USUBJID": "CDISC001",
                "value": {
                  "ECPRESP": null,
                  "ECOCCUR": "Y"
                }
              }
            ]
          },
          {
            "dataset": "ex.xpt",
            "domain": "EX",
            "execution_status": "skipped",
            "execution_message": "Rule skipped - doesn't apply to domain for rule id=CORE-000016, dataset=EX",
            "number_errors": 0,
            "errors": []
          },
          {
            "dataset": "ml.xpt",
            "domain": "ML",
            "execution_status": "success",
            "execution_message": "MLPRESP should be populated as \"Y\" when MLOCCUR is provided.",
            "number_errors": 3,
            "errors": [
              {
                "row": 1,
                "SEQ": 1,
                "USUBJID": "CDISC001",
                "value": {
                  "MLPRESP": null,
                  "MLOCCUR": "Y"
                }
              },
              {
                "row": 2,
                "SEQ": 2,
                "USUBJID": "CDISC001",
                "value": {
                  "MLPRESP": null,
                  "MLOCCUR": "N"
                }
              },
              {
                "row": 3,
                "SEQ": 3,
                "USUBJID": "CDISC001",
                "value": {
                  "MLPRESP": null,
                  "MLOCCUR": "Y"
                }
              }
            ]
          },
          {
            "dataset": "pr.xpt",
            "domain": "PR",
            "execution_status": "success",
            "execution_message": "PRPRESP should be populated as \"Y\" when PROCCUR is provided.",
            "number_errors": 3,
            "errors": [
              {
                "row": 1,
                "SEQ": 1,
                "USUBJID": "CDISC001",
                "value": {
                  "PRPRESP": null,
                  "PROCCUR": "Y"
                }
              },
              {
                "row": 2,
                "SEQ": 2,
                "USUBJID": "CDISC001",
                "value": {
                  "PRPRESP": null,
                  "PROCCUR": "N"
                }
              },
              {
                "row": 3,
                "SEQ": 3,
                "USUBJID": "CDISC001",
                "value": {
                  "PRPRESP": null,
                  "PROCCUR": "Y"
                }
              }
            ]
          },
          {
            "dataset": "su.xpt",
            "domain": "SU",
            "execution_status": "success",
            "execution_message": "SUPRESP should be populated as \"Y\" when SUOCCUR is provided.",
            "number_errors": 3,
            "errors": [
              {
                "row": 1,
                "SEQ": 1,
                "USUBJID": "CDISC001",
                "value": {
                  "SUPRESP": null,
                  "SUOCCUR": "Y"
                }
              },
              {
                "row": 2,
                "SEQ": 2,
                "USUBJID": "CDISC001",
                "value": {
                  "SUPRESP": null,
                  "SUOCCUR": "N"
                }
              },
              {
                "row": 3,
                "SEQ": 3,
                "USUBJID": "CDISC001",
                "value": {
                  "SUPRESP": null,
                  "SUOCCUR": "N"
                }
              }
            ]
          },
          {
            "dataset": "ae.xpt",
            "domain": "AE",
            "execution_status": "skipped",
            "execution_message": "Rule skipped - doesn't apply to domain for rule id=CORE-000016, dataset=AE",
            "number_errors": 0,
            "errors": []
          },
          {
            "dataset": "be.xpt",
            "domain": "BE",
            "execution_status": "success",
            "execution_message": "BEPRESP should be populated as \"Y\" when BEOCCUR is provided.",
            "number_errors": 4,
            "errors": [
              {
                "row": 1,
                "SEQ": 1,
                "USUBJID": "CDISC001",
                "value": {
                  "BEOCCUR": "Y",
                  "BEPRESP": null
                }
              },
              {
                "row": 2,
                "SEQ": 2,
                "USUBJID": "CDISC001",
                "value": {
                  "BEOCCUR": "N",
                  "BEPRESP": null
                }
              },
              {
                "row": 3,
                "SEQ": 3,
                "USUBJID": "CDISC001",
                "value": {
                  "BEOCCUR": "Y",
                  "BEPRESP": null
                }
              },
              {
                "row": 4,
                "SEQ": 4,
                "USUBJID": "CDISC001",
                "value": {
                  "BEOCCUR": "N",
                  "BEPRESP": null
                }
              }
            ]
          },
          {
            "dataset": "ce.xpt",
            "domain": "CE",
            "execution_status": "success",
            "execution_message": "CEPRESP should be populated as \"Y\" when CEOCCUR is provided.",
            "number_errors": 4,
            "errors": [
              {
                "row": 1,
                "SEQ": 1,
                "USUBJID": "CDISC001",
                "value": {
                  "CEPRESP": null,
                  "CEOCCUR": "Y"
                }
              },
              {
                "row": 2,
                "SEQ": 2,
                "USUBJID": "CDISC001",
                "value": {
                  "CEPRESP": null,
                  "CEOCCUR": "Y"
                }
              },
              {
                "row": 3,
                "SEQ": 3,
                "USUBJID": "CDISC001",
                "value": {
                  "CEPRESP": null,
                  "CEOCCUR": "Y"
                }
              },
              {
                "row": 4,
                "SEQ": 4,
                "USUBJID": "CDISC001",
                "value": {
                  "CEPRESP": null,
                  "CEOCCUR": "N"
                }
              }
            ]
          },
          {
            "dataset": "ds.xpt",
            "domain": "DS",
            "execution_status": "skipped",
            "execution_message": "Rule skipped - doesn't apply to domain for rule id=CORE-000016, dataset=DS",
            "number_errors": 0,
            "errors": []
          },
          {
            "dataset": "dv.xpt",
            "domain": "DV",
            "execution_status": "skipped",
            "execution_message": "Rule skipped - doesn't apply to domain for rule id=CORE-000016, dataset=DV",
            "number_errors": 0,
            "errors": []
          },
          {
            "dataset": "ho.xpt",
            "domain": "HO",
            "execution_status": "success",
            "execution_message": "HOPRESP should be populated as \"Y\" when HOOCCUR is provided.",
            "number_errors": 4,
            "errors": [
              {
                "row": 1,
                "SEQ": 1,
                "USUBJID": "CDISC001",
                "value": {
                  "HOOCCUR": "Y",
                  "HOPRESP": null
                }
              },
              {
                "row": 2,
                "SEQ": 2,
                "USUBJID": "CDISC001",
                "value": {
                  "HOOCCUR": "Y",
                  "HOPRESP": null
                }
              },
              {
                "row": 3,
                "SEQ": 3,
                "USUBJID": "CDISC001",
                "value": {
                  "HOOCCUR": "Y",
                  "HOPRESP": null
                }
              },
              {
                "row": 4,
                "SEQ": 1,
                "USUBJID": "CDISC002",
                "value": {
                  "HOOCCUR": "N",
                  "HOPRESP": null
                }
              }
            ]
          },
          {
            "dataset": "mh.xpt",
            "domain": "MH",
            "execution_status": "success",
            "execution_message": "MHPRESP should be populated as \"Y\" when MHOCCUR is provided.",
            "number_errors": 4,
            "errors": [
              {
                "row": 1,
                "SEQ": 1,
                "USUBJID": "CDISC001",
                "value": {
                  "MHPRESP": null,
                  "MHOCCUR": "Y"
                }
              },
              {
                "row": 2,
                "SEQ": 2,
                "USUBJID": "CDISC001",
                "value": {
                  "MHPRESP": null,
                  "MHOCCUR": "Y"
                }
              },
              {
                "row": 3,
                "SEQ": 3,
                "USUBJID": "CDISC001",
                "value": {
                  "MHPRESP": null,
                  "MHOCCUR": "Y"
                }
              },
              {
                "row": 4,
                "SEQ": 1,
                "USUBJID": "CDISC002",
                "value": {
                  "MHPRESP": null,
                  "MHOCCUR": "N"
                }
              }
            ]
          }
        ],
        "old_vs_sql": {
          "dataset_mismatch": false,
          "execution_status_mismatch": true,
          "number_of_errors_mismatch": false,
          "diff": {}
        },
        "whitelisted": false,
        "sql_overall_result": "success",
        "old_overall_result": "success",
        "validated_results_folder_exists": false,
        "validation_file": "",
        "validation_file_validation": "",
        "old_result_validation": "invalid",
        "sql_results_validation": "invalid"
      },
      "02": {
        "datasets_import_sql": "SUCCESS",
        "results_present_sql": true,
        "results_sql": [
          {
            "dataset": "ag.xpt",
            "domain": "AG",
            "execution_status": "success",
            "execution_message": "AGPRESP should be populated as \"Y\" when AGOCCUR is provided.",
            "number_errors": 2,
            "errors": [
              {
                "row": 1,
                "SEQ": 1,
                "USUBJID": "CDISC001",
                "value": {
                  "AGPRESP": null,
                  "AGOCCUR": "Y"
                }
              },
              {
                "row": 2,
                "SEQ": 2,
                "USUBJID": "CDISC001",
                "value": {
                  "AGPRESP": "y",
                  "AGOCCUR": "Y"
                }
              }
            ]
          },
          {
            "dataset": "cm.xpt",
            "domain": "CM",
            "execution_status": "success",
            "execution_message": "CMPRESP should be populated as \"Y\" when CMOCCUR is provided.",
            "number_errors": 2,
            "errors": [
              {
                "row": 1,
                "SEQ": 1,
                "USUBJID": "CDISC001",
                "value": {
                  "CMPRESP": null,
                  "CMOCCUR": "Y"
                }
              },
              {
                "row": 2,
                "SEQ": 2,
                "USUBJID": "CDISC001",
                "value": {
                  "CMPRESP": "N",
                  "CMOCCUR": "N"
                }
              }
            ]
          },
          {
            "dataset": "ec.xpt",
            "domain": "EC",
            "execution_status": "success",
            "execution_message": "ECPRESP should be populated as \"Y\" when ECOCCUR is provided.",
            "number_errors": 3,
            "errors": [
              {
                "row": 1,
                "SEQ": 1,
                "USUBJID": "CDISC001",
                "value": {
                  "ECPRESP": null,
                  "ECOCCUR": "Y"
                }
              },
              {
                "row": 2,
                "SEQ": 2,
                "USUBJID": "CDISC001",
                "value": {
                  "ECPRESP": "y",
                  "ECOCCUR": "Y"
                }
              },
              {
                "row": 3,
                "SEQ": 3,
                "USUBJID": "CDISC001",
                "value": {
                  "ECPRESP": "N",
                  "ECOCCUR": "Y"
                }
              }
            ]
          },
          {
            "dataset": "ex.xpt",
            "domain": "EX",
            "execution_status": "skipped",
            "execution_message": "Rule skipped - doesn't apply to domain for rule id=CORE-000016, dataset=EX",
            "number_errors": 0,
            "errors": []
          },
          {
            "dataset": "ml.xpt",
            "domain": "ML",
            "execution_status": "success",
            "execution_message": "MLPRESP should be populated as \"Y\" when MLOCCUR is provided.",
            "number_errors": 2,
            "errors": [
              {
                "row": 1,
                "SEQ": 1,
                "USUBJID": "CDISC001",
                "value": {
                  "MLPRESP": "y",
                  "MLOCCUR": "Y"
                }
              },
              {
                "row": 2,
                "SEQ": 2,
                "USUBJID": "CDISC001",
                "value": {
                  "MLPRESP": null,
                  "MLOCCUR": "Y"
                }
              }
            ]
          },
          {
            "dataset": "pr.xpt",
            "domain": "PR",
            "execution_status": "success",
            "execution_message": "PRPRESP should be populated as \"Y\" when PROCCUR is provided.",
            "number_errors": 2,
            "errors": [
              {
                "row": 1,
                "SEQ": 1,
                "USUBJID": "CDISC001",
                "value": {
                  "PRPRESP": "n",
                  "PROCCUR": "Y"
                }
              },
              {
                "row": 2,
                "SEQ": 2,
                "USUBJID": "CDISC001",
                "value": {
                  "PRPRESP": "y",
                  "PROCCUR": "N"
                }
              }
            ]
          },
          {
            "dataset": "su.xpt",
            "domain": "SU",
            "execution_status": "success",
            "execution_message": "SUPRESP should be populated as \"Y\" when SUOCCUR is provided.",
            "number_errors": 2,
            "errors": [
              {
                "row": 1,
                "SEQ": 1,
                "USUBJID": "CDISC001",
                "value": {
                  "SUPRESP": "y",
                  "SUOCCUR": "Y"
                }
              },
              {
                "row": 2,
                "SEQ": 2,
                "USUBJID": "CDISC001",
                "value": {
                  "SUPRESP": "y",
                  "SUOCCUR": "N"
                }
              }
            ]
          },
          {
            "dataset": "ae.xpt",
            "domain": "AE",
            "execution_status": "skipped",
            "execution_message": "Rule skipped - doesn't apply to domain for rule id=CORE-000016, dataset=AE",
            "number_errors": 0,
            "errors": []
          },
          {
            "dataset": "be.xpt",
            "domain": "BE",
            "execution_status": "success",
            "execution_message": "BEPRESP should be populated as \"Y\" when BEOCCUR is provided.",
            "number_errors": 3,
            "errors": [
              {
                "row": 1,
                "SEQ": 1,
                "USUBJID": "CDISC001",
                "value": {
                  "BEPRESP": null,
                  "BEOCCUR": "Y"
                }
              },
              {
                "row": 2,
                "SEQ": 2,
                "USUBJID": "CDISC001",
                "value": {
                  "BEPRESP": "y",
                  "BEOCCUR": "Y"
                }
              },
              {
                "row": 3,
                "SEQ": 3,
                "USUBJID": "CDISC001",
                "value": {
                  "BEPRESP": "N",
                  "BEOCCUR": "Y"
                }
              }
            ]
          },
          {
            "dataset": "ce.xpt",
            "domain": "CE",
            "execution_status": "success",
            "execution_message": "CEPRESP should be populated as \"Y\" when CEOCCUR is provided.",
            "number_errors": 3,
            "errors": [
              {
                "row": 1,
                "SEQ": 1,
                "USUBJID": "CDISC001",
                "value": {
                  "CEPRESP": null,
                  "CEOCCUR": "Y"
                }
              },
              {
                "row": 2,
                "SEQ": 2,
                "USUBJID": "CDISC001",
                "value": {
                  "CEPRESP": "y",
                  "CEOCCUR": "N"
                }
              },
              {
                "row": 3,
                "SEQ": 3,
                "USUBJID": "CDISC001",
                "value": {
                  "CEPRESP": null,
                  "CEOCCUR": "Y"
                }
              }
            ]
          },
          {
            "dataset": "ds.xpt",
            "domain": "DS",
            "execution_status": "skipped",
            "execution_message": "Rule skipped - doesn't apply to domain for rule id=CORE-000016, dataset=DS",
            "number_errors": 0,
            "errors": []
          },
          {
            "dataset": "dv.xpt",
            "domain": "DV",
            "execution_status": "skipped",
            "execution_message": "Rule skipped - doesn't apply to domain for rule id=CORE-000016, dataset=DV",
            "number_errors": 0,
            "errors": []
          },
          {
            "dataset": "ho.xpt",
            "domain": "HO",
            "execution_status": "success",
            "execution_message": "HOPRESP should be populated as \"Y\" when HOOCCUR is provided.",
            "number_errors": 3,
            "errors": [
              {
                "row": 1,
                "SEQ": 1,
                "USUBJID": "CDISC001",
                "value": {
                  "HOPRESP": "y",
                  "HOOCCUR": "Y"
                }
              },
              {
                "row": 2,
                "SEQ": 2,
                "USUBJID": "CDISC001",
                "value": {
                  "HOPRESP": "y",
                  "HOOCCUR": "N"
                }
              },
              {
                "row": 3,
                "SEQ": 3,
                "USUBJID": "CDISC001",
                "value": {
                  "HOPRESP": "n",
                  "HOOCCUR": "Y"
                }
              }
            ]
          },
          {
            "dataset": "mh.xpt",
            "domain": "MH",
            "execution_status": "success",
            "execution_message": "MHPRESP should be populated as \"Y\" when MHOCCUR is provided.",
            "number_errors": 3,
            "errors": [
              {
                "row": 1,
                "SEQ": 1,
                "USUBJID": "CDISC001",
                "value": {
                  "MHPRESP": "y",
                  "MHOCCUR": "Y"
                }
              },
              {
                "row": 2,
                "SEQ": 2,
                "USUBJID": "CDISC001",
                "value": {
                  "MHPRESP": "y",
                  "MHOCCUR": "Y"
                }
              },
              {
                "row": 3,
                "SEQ": 3,
                "USUBJID": "CDISC001",
                "value": {
                  "MHPRESP": "y",
                  "MHOCCUR": "Y"
                }
              }
            ]
          }
        ],
        "dataset_import_old": "SUCCESS",
        "results_present_old": true,
        "results_old": [
          {
            "dataset": "ag.xpt",
            "domain": "AG",
            "execution_status": "success",
            "execution_message": "AGPRESP should be populated as \"Y\" when AGOCCUR is provided.",
            "number_errors": 2,
            "errors": [
              {
                "row": 1,
                "SEQ": 1,
                "USUBJID": "CDISC001",
                "value": {
                  "AGPRESP": null,
                  "AGOCCUR": "Y"
                }
              },
              {
                "row": 2,
                "SEQ": 2,
                "USUBJID": "CDISC001",
                "value": {
                  "AGPRESP": "y",
                  "AGOCCUR": "Y"
                }
              }
            ]
          },
          {
            "dataset": "cm.xpt",
            "domain": "CM",
            "execution_status": "success",
            "execution_message": "CMPRESP should be populated as \"Y\" when CMOCCUR is provided.",
            "number_errors": 2,
            "errors": [
              {
                "row": 1,
                "SEQ": 1,
                "USUBJID": "CDISC001",
                "value": {
                  "CMOCCUR": "Y",
                  "CMPRESP": null
                }
              },
              {
                "row": 2,
                "SEQ": 2,
                "USUBJID": "CDISC001",
                "value": {
                  "CMOCCUR": "N",
                  "CMPRESP": "N"
                }
              }
            ]
          },
          {
            "dataset": "ec.xpt",
            "domain": "EC",
            "execution_status": "success",
            "execution_message": "ECPRESP should be populated as \"Y\" when ECOCCUR is provided.",
            "number_errors": 3,
            "errors": [
              {
                "row": 1,
                "SEQ": 1,
                "USUBJID": "CDISC001",
                "value": {
                  "ECPRESP": null,
                  "ECOCCUR": "Y"
                }
              },
              {
                "row": 2,
                "SEQ": 2,
                "USUBJID": "CDISC001",
                "value": {
                  "ECPRESP": "y",
                  "ECOCCUR": "Y"
                }
              },
              {
                "row": 3,
                "SEQ": 3,
                "USUBJID": "CDISC001",
                "value": {
                  "ECPRESP": "N",
                  "ECOCCUR": "Y"
                }
              }
            ]
          },
          {
            "dataset": "ex.xpt",
            "domain": "EX",
            "execution_status": "skipped",
            "execution_message": "Rule skipped - doesn't apply to domain for rule id=CORE-000016, dataset=EX",
            "number_errors": 0,
            "errors": []
          },
          {
            "dataset": "ml.xpt",
            "domain": "ML",
            "execution_status": "success",
            "execution_message": "MLPRESP should be populated as \"Y\" when MLOCCUR is provided.",
            "number_errors": 2,
            "errors": [
              {
                "row": 1,
                "SEQ": 1,
                "USUBJID": "CDISC001",
                "value": {
                  "MLPRESP": "y",
                  "MLOCCUR": "Y"
                }
              },
              {
                "row": 2,
                "SEQ": 2,
                "USUBJID": "CDISC001",
                "value": {
                  "MLPRESP": null,
                  "MLOCCUR": "Y"
                }
              }
            ]
          },
          {
            "dataset": "pr.xpt",
            "domain": "PR",
            "execution_status": "success",
            "execution_message": "PRPRESP should be populated as \"Y\" when PROCCUR is provided.",
            "number_errors": 2,
            "errors": [
              {
                "row": 1,
                "SEQ": 1,
                "USUBJID": "CDISC001",
                "value": {
                  "PRPRESP": "n",
                  "PROCCUR": "Y"
                }
              },
              {
                "row": 2,
                "SEQ": 2,
                "USUBJID": "CDISC001",
                "value": {
                  "PRPRESP": "y",
                  "PROCCUR": "N"
                }
              }
            ]
          },
          {
            "dataset": "su.xpt",
            "domain": "SU",
            "execution_status": "success",
            "execution_message": "SUPRESP should be populated as \"Y\" when SUOCCUR is provided.",
            "number_errors": 2,
            "errors": [
              {
                "row": 1,
                "SEQ": 1,
                "USUBJID": "CDISC001",
                "value": {
                  "SUPRESP": "y",
                  "SUOCCUR": "Y"
                }
              },
              {
                "row": 2,
                "SEQ": 2,
                "USUBJID": "CDISC001",
                "value": {
                  "SUPRESP": "y",
                  "SUOCCUR": "N"
                }
              }
            ]
          },
          {
            "dataset": "ae.xpt",
            "domain": "AE",
            "execution_status": "skipped",
            "execution_message": "Rule skipped - doesn't apply to domain for rule id=CORE-000016, dataset=AE",
            "number_errors": 0,
            "errors": []
          },
          {
            "dataset": "be.xpt",
            "domain": "BE",
            "execution_status": "success",
            "execution_message": "BEPRESP should be populated as \"Y\" when BEOCCUR is provided.",
            "number_errors": 3,
            "errors": [
              {
                "row": 1,
                "SEQ": 1,
                "USUBJID": "CDISC001",
                "value": {
                  "BEOCCUR": "Y",
                  "BEPRESP": null
                }
              },
              {
                "row": 2,
                "SEQ": 2,
                "USUBJID": "CDISC001",
                "value": {
                  "BEOCCUR": "Y",
                  "BEPRESP": "y"
                }
              },
              {
                "row": 3,
                "SEQ": 3,
                "USUBJID": "CDISC001",
                "value": {
                  "BEOCCUR": "Y",
                  "BEPRESP": "N"
                }
              }
            ]
          },
          {
            "dataset": "ce.xpt",
            "domain": "CE",
            "execution_status": "success",
            "execution_message": "CEPRESP should be populated as \"Y\" when CEOCCUR is provided.",
            "number_errors": 3,
            "errors": [
              {
                "row": 1,
                "SEQ": 1,
                "USUBJID": "CDISC001",
                "value": {
                  "CEPRESP": null,
                  "CEOCCUR": "Y"
                }
              },
              {
                "row": 2,
                "SEQ": 2,
                "USUBJID": "CDISC001",
                "value": {
                  "CEPRESP": "y",
                  "CEOCCUR": "N"
                }
              },
              {
                "row": 3,
                "SEQ": 3,
                "USUBJID": "CDISC001",
                "value": {
                  "CEPRESP": null,
                  "CEOCCUR": "Y"
                }
              }
            ]
          },
          {
            "dataset": "ds.xpt",
            "domain": "DS",
            "execution_status": "skipped",
            "execution_message": "Rule skipped - doesn't apply to domain for rule id=CORE-000016, dataset=DS",
            "number_errors": 0,
            "errors": []
          },
          {
            "dataset": "dv.xpt",
            "domain": "DV",
            "execution_status": "skipped",
            "execution_message": "Rule skipped - doesn't apply to domain for rule id=CORE-000016, dataset=DV",
            "number_errors": 0,
            "errors": []
          },
          {
            "dataset": "ho.xpt",
            "domain": "HO",
            "execution_status": "success",
            "execution_message": "HOPRESP should be populated as \"Y\" when HOOCCUR is provided.",
            "number_errors": 3,
            "errors": [
              {
                "row": 1,
                "SEQ": 1,
                "USUBJID": "CDISC001",
                "value": {
                  "HOOCCUR": "Y",
                  "HOPRESP": "y"
                }
              },
              {
                "row": 2,
                "SEQ": 2,
                "USUBJID": "CDISC001",
                "value": {
                  "HOOCCUR": "N",
                  "HOPRESP": "y"
                }
              },
              {
                "row": 3,
                "SEQ": 3,
                "USUBJID": "CDISC001",
                "value": {
                  "HOOCCUR": "Y",
                  "HOPRESP": "n"
                }
              }
            ]
          },
          {
            "dataset": "mh.xpt",
            "domain": "MH",
            "execution_status": "success",
            "execution_message": "MHPRESP should be populated as \"Y\" when MHOCCUR is provided.",
            "number_errors": 3,
            "errors": [
              {
                "row": 1,
                "SEQ": 1,
                "USUBJID": "CDISC001",
                "value": {
                  "MHPRESP": "y",
                  "MHOCCUR": "Y"
                }
              },
              {
                "row": 2,
                "SEQ": 2,
                "USUBJID": "CDISC001",
                "value": {
                  "MHPRESP": "y",
                  "MHOCCUR": "Y"
                }
              },
              {
                "row": 3,
                "SEQ": 3,
                "USUBJID": "CDISC001",
                "value": {
                  "MHPRESP": "y",
                  "MHOCCUR": "Y"
                }
              }
            ]
          }
        ],
        "old_vs_sql": {
          "equal": true
        },
        "whitelisted": false,
        "sql_overall_result": "success",
        "old_overall_result": "success",
        "validated_results_folder_exists": false,
        "validation_file": "",
        "validation_file_validation": "",
        "old_result_validation": "invalid",
        "sql_results_validation": "invalid"
      },
      "03": {
        "datasets_import_sql": "SUCCESS",
        "results_present_sql": true,
        "results_sql": [
          {
            "dataset": "ag.xpt",
            "domain": "AG",
            "execution_status": "success",
            "execution_message": "AGPRESP should be populated as \"Y\" when AGOCCUR is provided.",
            "number_errors": 3,
            "errors": [
              {
                "row": 1,
                "SEQ": 1,
                "USUBJID": "CDISC001",
                "value": {
                  "AGPRESP": "Not in dataset",
                  "AGOCCUR": "Y"
                }
              },
              {
                "row": 2,
                "SEQ": 2,
                "USUBJID": "CDISC001",
                "value": {
                  "AGPRESP": "Not in dataset",
                  "AGOCCUR": "N"
                }
              },
              {
                "row": 3,
                "SEQ": 3,
                "USUBJID": "CDISC001",
                "value": {
                  "AGPRESP": "Not in dataset",
                  "AGOCCUR": "Y"
