# Variable: --ENDY
# Condition: --ENDTC or DM.RFSTDTC does not contain complete values in their date portion
# Rule: --ENDY = null
# verified
Authorities:
  - Organization: CDISC
    Standards:
      - Name: SDTMIG
        References:
          - Citations:
              - Cited Guidance:
                  The permissible Study Day variables (--DY, --STDY, and --ENDY)
                  describe the relative day of the observation starting with the
                  reference date as Day 1. They are determined by comparing the
                  date portion of the  respective date/time variables (--DTC,
                  --STDTC, and --ENDTC) to the date portion of the Subject
                  Reference Start Date (RFSTDTC from the Demographics domain).
                  All Study Day values are integers. Thus, to calculate Study
                  Day,  --DY = (date portion of --DTC) - (date portion of
                  RFSTDTC) + 1 if --DTC is on or after RFSTDTC,  --DY = (date
                  portion of --DTC) - (date portion of RFSTDTC) if --DTC
                  precedes RFSTDTC.  This algorithm should be used across all
                  domains.
                Document: IG v3.4
                Section: 4.4.4
            Origin: SDTM and SDTMIG Conformance Rules
            Rule Identifier:
              Id: CG0223
              Version: "1"
            Version: "2.0"
        Version: "3.4"
      - Name: SDTMIG
        References:
          - Citations:
              - Cited Guidance:
                  "[The permissible Study Day variables (--DY, --STDY, and --ENDY)
                  describe the relative day of the observation starting with the
                  reference date as Day 1. They are determined by comparing the
                  date portion of the respective date/time variables (--DTC,
                  --STDTC, and --ENDTC) to the date portion of the Subject
                  Reference Start Date (RFSTDTC from the Demographics
                  domain).][All Study Day values are integers. Thus, to
                  calculate Study Day, --DY = (date portion of --DTC) - (date
                  portion of RFSTDTC) + 1 if --DTC is on or after RFSTDTC, --DY
                  = (date portion of --DTC) - (date portion of RFSTDTC) if --DTC
                  precedes RFSTDTC. This algorithm should be used across all
                  domains.]"
                Document: IG v3.3
                Section: 4.4.4
            Origin: SDTM and SDTMIG Conformance Rules
            Rule Identifier:
              Id: CG0223
              Version: "1"
            Version: "2.0"
        Version: "3.3"
      - Name: SDTMIG
        References:
          - Citations:
              - Cited Guidance:
                  "[The permissible Study Day variables (--DY, --STDY, and --ENDY)
                  describe the relative day of the observation starting with the
                  reference date as Day 1. They are determined by comparing the
                  date portion of the respective date/time variables (--DTC,
                  --STDTC, and --ENDTC) to the date portion of the Subject
                  Reference Start Date (RFSTDTC from the Demographics
                  domain).][All Study Day values are integers. Thus, to
                  calculate Study Day, --DY = (date portion of --DTC) - (date
                  portion of RFSTDTC) + 1 if --DTC is on or after RFSTDTC, --DY
                  = (date portion of --DTC) - (date portion of RFSTDTC) if --DTC
                  precedes RFSTDTC. This algorithm should be used across all
                  domains.]"
                Document: IG v3.2
                Section: 4.1.4
            Origin: SDTM and SDTMIG Conformance Rules
            Rule Identifier:
              Id: CG0223
              Version: "1"
            Version: "2.0"
        Version: "3.2"
      - Name: TIG
        References:
          - Citations:
              - Cited Guidance:
                  "The permissible Study Day variables (--DY, --STDY, and --ENDY)
                  describe the relative day of the observation starting with the
                  reference date as Day 1. They are determined by comparing the
                  date portion of the respective date/time variables (--DTC,
                  --STDTC, and --ENDTC) to the date portion of the Subject
                  Reference Start Date (RFSTDTC from the Demographics
                  domain).][All Study Day values are integers. Thus, to
                  calculate Study Day: --DY = (date portion of --DTC) - (date
                  portion of RFSTDTC) + 1 if --DTC is on or after RFSTDTC, --DY
                  = (date portion of --DTC) - (date portion of RFSTDTC) if --DTC
                  precedes RFSTDTC. This algorithm should be used across all
                  domains."
                Document: TIG 1.0
                Item: Num 1
                Section: 2.8.7.6
            Origin: TIG Conformance Rules
            Rule Identifier:
              Id: TIG0437
              Version: "1"
            Version: "1.0"
        Substandard: SDTM
        Version: "1.0"
Check:
  any:
    - all:
        - name: --ENDTC
          operator: is_incomplete_date
        - name: --ENDY
          operator: non_empty
    - all:
        - name: RFSTDTC
          operator: is_incomplete_date
        - name: --ENDY
          operator: non_empty
Core:
  Id: CORE-000139
  Status: Published
  Version: "1"
Description: Raise an error when --ENDTC or RFSTDTC in the DM dataset does
  not contain complete date portion value and --ENDY is populated.
Executability: Fully Executable
Match Datasets:
  - Keys:
      - USUBJID
    Name: DM
Outcome:
  Message: --ENDY is populated but either --ENDTC or RFSTDTC in the DM dataset
    do not contain complete values in the date portion.
  Output Variables:
    - --ENDY
    - --ENDTC
    - RFSTDTC
Rule Type: Record Data
Scope:
  Classes:
    Include:
      - ALL
  Domains:
    Exclude:
      - DM
  Use Case: INDH
Sensitivity: Record
