"dataset","core_id","issues","message"
"vs.xpt","CORE-000529",89051,"VSDY is not calculated correctly even though the date portion of VSDTC is complete, the date portion of RFSTDTC is complete, and VSDY is not empty."
"lb.xpt","CORE-000529",68131,"LBDY is not calculated correctly even though the date portion of LBDTC is complete, the date portion of RFSTDTC is complete, and LBDY is not empty."
"ex.xpt","CORE-000553",29131,"EXENDY is not calculated correctly even though the date portion of EXENDTC is complete and the date portion of RFSTDTC is complete."
"sv.xpt","CORE-000553",19735,"SVENDY is not calculated correctly even though the date portion of SVENDTC is complete and the date portion of RFSTDTC is complete."
"lb.xpt","CORE-000354",18635,"The date portion of LBDTC or RFSTDTC is incomplete, but LBDY is not empty."
"oe.xpt","CORE-000529",17128,"OEDY is not calculated correctly even though the date portion of OEDTC is complete, the date portion of RFSTDTC is complete, and OEDY is not empty."
"ex.xpt","CORE-002033",15827,"EXENDTC does not fall on or between RFXSTDTC and RFXENDTC."
"ex.xpt","CORE-002032",15625,"EXSTDTC does not fall on or between RFXSTDTC and RFXENDTC."
"ft.xpt","CORE-000529",15469,"FTDY is not calculated correctly even though the date portion of FTDTC is complete, the date portion of RFSTDTC is complete, and FTDY is not empty."
"vs.xpt","CORE-000354",11724,"The date portion of VSDTC or RFSTDTC is incomplete, but VSDY is not empty."
"ec.xpt","CORE-000553",11536,"ECENDY is not calculated correctly even though the date portion of ECENDTC is complete and the date portion of RFSTDTC is complete."
"sv.xpt","CORE-000138",8390,"SVSTDY is populated but either SVSTDTC or RFSTDTC in the DM dataset does not contain a complete date value."
"ex.xpt","CORE-000139",8243,"EXENDY is populated but either EXENDTC or RFSTDTC in the DM dataset do not contain complete values in the date portion."
"ex.xpt","CORE-000138",8095,"EXSTDY is populated but either EXSTDTC or RFSTDTC in the DM dataset does not contain a complete date value."
"ae.xpt","CORE-000138",7498,"AESTDY is populated but either AESTDTC or RFSTDTC in the DM dataset does not contain a complete date value."
"ae.xpt","CORE-000184",6815,"AEBDSYCD and AEBODSYS do not have a one-to-one relationship."
"ae.xpt","CORE-000201",6552,"USUBJID value is missing in the DM dataset."
"sv.xpt","CORE-000040",5834,"VISITNUM for unplanned visit matches a VISITNUM value in the TV dataset."
"sv.xpt","CORE-000035",5749,"Visit is unplanned but VISITDY is populated."
"sv.xpt","CORE-000249",5108,"VISITDY does not match the VISITDY in the TV dataset for the corresponding VISITNUM."
"sv.xpt","CORE-000201",4700,"USUBJID value is missing in the DM dataset."
"ae.xpt","CORE-002037",4635,"AEDECOD is not consistent for records with identical AETERM values."
"sv.xpt","CORE-000139",4483,"SVENDY is populated but either SVENDTC or RFSTDTC in the DM dataset do not contain complete values in the date portion."
"fa.xpt","CORE-000529",4265,"FADY is not calculated correctly even though the date portion of FADTC is complete, the date portion of RFSTDTC is complete, and FADY is not empty."
"ae.xpt","CORE-000268",4065,"AEDECOD and AEPTCD do not have a one-to-one relationship."
"ec.xpt","CORE-000139",3464,"ECENDY is populated but either ECENDTC or RFSTDTC in the DM dataset do not contain complete values in the date portion."
"ec.xpt","CORE-000138",3464,"ECSTDY is populated but either ECSTDTC or RFSTDTC in the DM dataset does not contain a complete date value."
"ds.xpt","CORE-000354",3244,"The date portion of DSDTC or RFSTDTC is incomplete, but DSDY is not empty."
"ft.xpt","CORE-000354",2777,"The date portion of FTDTC or RFSTDTC is incomplete, but FTDY is not empty."
"cm.xpt","CORE-000138",2144,"CMSTDY is populated but either CMSTDTC or RFSTDTC in the DM dataset does not contain a complete date value."
"lb.xpt","CORE-000249",1955,"VISITDY does not match the VISITDY in the TV dataset for the corresponding VISITNUM."
"cm.xpt","CORE-000139",1920,"CMENDY is populated but either CMENDTC or RFSTDTC in the DM dataset do not contain complete values in the date portion."
"oe.xpt","CORE-000354",1648,"The date portion of OEDTC or RFSTDTC is incomplete, but OEDY is not empty."
"lb.xpt","CORE-000361",1216,"VISIT and VISITNUM do not have a one-to-one relationship."
"dm.xpt","CORE-000351",1098,"USUBJID is not unique within study."
"dm.xpt","CORE-000186",1091,"SUBJID is not unique within study."
"ts.xpt","CORE-000154",1084,"TSSEQ is not unique within TSPARMCD."
"ss.xpt","CORE-000249",1071,"VISITDY does not match the VISITDY in the TV dataset for the corresponding VISITNUM."
"se.xpt","CORE-000138",936,"SESTDY is populated but either SESTDTC or RFSTDTC in the DM dataset does not contain a complete date value."
"se.xpt","CORE-000139",899,"SEENDY is populated but either SEENDTC or RFSTDTC in the DM dataset do not contain complete values in the date portion."
"dm.xpt","CORE-000008",868,"SSSTRESC in the SS dataset is 'DEAD', but DTHFL in the DM dataset is not equal to 'Y'."
"sv.xpt","CORE-000361",865,"VISIT and VISITNUM do not have a one-to-one relationship."
"lb2.xpt","CORE-000553",734,"LBENDY is not calculated correctly even though the date portion of LBENDTC is complete and the date portion of RFSTDTC is complete."
"lb1.xpt","CORE-000553",734,"LBENDY is not calculated correctly even though the date portion of LBENDTC is complete and the date portion of RFSTDTC is complete."
"mh.xpt","CORE-000138",715,"MHSTDY is populated but either MHSTDTC or RFSTDTC in the DM dataset does not contain a complete date value."
"lb.xpt","CORE-000689",695,"LBTPT and LBTPTNUM do not have a one-to-one relationship per unique combination of VISITNUM and LBTPTREF values."
"lb2.xpt","CORE-000529",644,"LBDY is not calculated correctly even though the date portion of LBDTC is complete, the date portion of RFSTDTC is complete, and LBDY is not empty."
"pr.xpt","CORE-000249",624,"VISITDY does not match the VISITDY in the TV dataset for the corresponding VISITNUM."
"pr.xpt","CORE-000553",612,"PRENDY is not calculated correctly even though the date portion of PRENDTC is complete and the date portion of RFSTDTC is complete."
"dm.xpt","CORE-000748",579,"Subject is assigned to an arm code (randomized) but has no record in the EX dataset."
"lb1.xpt","CORE-000529",569,"LBDY is not calculated correctly even though the date portion of LBDTC is complete, the date portion of RFSTDTC is complete, and LBDY is not empty."
"ae.xpt","CORE-002047",544,"AEBODSYS is not a valid MedDRA system organ class."
"ho.xpt","CORE-000553",528,"HOENDY is not calculated correctly even though the date portion of HOENDTC is complete and the date portion of RFSTDTC is complete."
"fa.xpt","CORE-000354",527,"The date portion of FADTC or RFSTDTC is incomplete, but FADY is not empty."
"lb1.xpt","CORE-000354",513,"The date portion of LBDTC or RFSTDTC is incomplete, but LBDY is not empty."
"ft.xpt","CORE-000249",511,"VISITDY does not match the VISITDY in the TV dataset for the corresponding VISITNUM."
"mh.xpt","CORE-000553",486,"MHENDY is not calculated correctly even though the date portion of MHENDTC is complete and the date portion of RFSTDTC is complete."
"ae.xpt","CORE-002008",475,"AELLT is not a valid MedDRA lowest level TERM."
"vs.xpt","CORE-000249",472,"VISITDY does not match the VISITDY in the TV dataset for the corresponding VISITNUM."
"zb.xpt","CORE-000529",444,"ZBDY is not calculated correctly even though the date portion of ZBDTC is complete, the date portion of RFSTDTC is complete, and ZBDY is not empty."
"dm.xpt","CORE-000238",440,"RFXENDTC does not equal the latest value of EXSTDTC or EXENDTC in the EX dataset."
"ae.xpt","CORE-002031",439,"AEBDSYCD is not a valid MedDRA system organ class code."
"ae.xpt","CORE-002014",435,"AEHLGT is not a valid MedDRA high level group term."
"ae.xpt","CORE-002013",435,"AEHLT is not a valid MedDRA high level term."
"ae.xpt","CORE-002012",435,"AEHLGTCD is not a valid MedDRA high level group term code."
"ae.xpt","CORE-002011",435,"AEHLTCD is not a valid MedDRA high level term code."
"ae.xpt","CORE-002010",435,"AEPTCD  is not a valid MedDRA preferred term code."
"ae.xpt","CORE-002009",434,"AELLTCD is not a valid MedDRA lowest level code."
"ae.xpt","CORE-000139",417,"AEENDY is populated but either AEENDTC or RFSTDTC in the DM dataset do not contain complete values in the date portion."
"ds.xpt","CORE-000201",404,"USUBJID value is missing in the DM dataset."
"dm.xpt","CORE-000239",383,"RFXSTDTC does not equal the earliest value of EXSTDTC in the EX dataset."
"dm.xpt","CORE-000356",353,"Required variable has a missing value."
"vs.xpt","CORE-000689",340,"VSTPT and VSTPTNUM do not have a one-to-one relationship per unique combination of VISITNUM and VSTPTREF values."
"dv.xpt","CORE-000086",340,"DVSTDTC is earlier than RFICDTC in DM."
"ec.xpt","CORE-002032",320,"ECSTDTC does not fall on or between RFXSTDTC and RFXENDTC."
"ss.xpt","CORE-000354",288,"The date portion of SSDTC or RFSTDTC is incomplete, but SSDY is not empty."
"lb2.xpt","CORE-000354",283,"The date portion of LBDTC or RFSTDTC is incomplete, but LBDY is not empty."
"dm.xpt","CORE-000252",283,"DTHFL is not equal to 'Y' but DSDECOD is equal to 'DEATH'."
"ae.xpt","CORE-000356",275,"Required variable has a missing value."
"ce.xpt","CORE-000553",266,"CEENDY is not calculated correctly even though the date portion of CEENDTC is complete and the date portion of RFSTDTC is complete."
"sv.xpt","CORE-000271",256,"EPOCH value does not match any of the EPOCH values in the TA dataset."
"ts.xpt","CORE-000152",244,"TSVAL and TSVALCD do not have a one-to-one relationship."
"dm.xpt","CORE-000047",233,"ARM value in DM dataset does not match any ARM value in TA dataset. This is only acceptable for multi-stage studies with incomplete ARM assignments."
"mh.xpt","CORE-002047",219,"MHBODSYS is not a valid MedDRA system organ class."
"mh.xpt","CORE-002031",219,"MHBDSYCD is not a valid MedDRA system organ class code."
"ti.xpt","CORE-000145",210,"IETESTCD must be unique within TIVERS."
"ds.xpt","CORE-002037",208,"DSDECOD is not consistent for records with identical DSTERM values."
"mh.xpt","CORE-000184",207,"MHBDSYCD and MHBODSYS do not have a one-to-one relationship."
"mh.xpt","CORE-002008",204,"MHLLT is not a valid MedDRA lowest level TERM."
"mh.xpt","CORE-002009",202,"MHLLTCD is not a valid MedDRA lowest level code."
"ce.xpt","CORE-000138",202,"CESTDY is populated but either CESTDTC or RFSTDTC in the DM dataset does not contain a complete date value."
"mh.xpt","CORE-002014",199,"MHHLGT is not a valid MedDRA high level group term."
"mh.xpt","CORE-002013",199,"MHHLT is not a valid MedDRA high level term."
"mh.xpt","CORE-002012",199,"MHHLGTCD is not a valid MedDRA high level group term code."
"mh.xpt","CORE-002011",199,"MHHLTCD is not a valid MedDRA high level term code."
"mh.xpt","CORE-002010",199,"MHPTCD  is not a valid MedDRA preferred term code."
"mh.xpt","CORE-000268",199,"MHDECOD and MHPTCD do not have a one-to-one relationship."
"ae.xpt","CORE-000264",199,"AEBODSYS must be equal to AESOC when primary SOC is used for analysis."
"se.xpt","CORE-000352",189,"SEENDTC is not equal to SESTDTC of the next element."
"ae.xpt","CORE-000022",188,"At least one of the Seriousness criteria (AESCAN, AESCONG, AESDISAB, AESDTH, AESHOSP, AESLIFE, AESOD or AESMIE) = 'Y', but AESER = 'N' or empty."
"tv.xpt","CORE-000361",178,"VISIT and VISITNUM do not have a one-to-one relationship."
"ae.xpt","CORE-000024",174,"AEBODSYS is not empty but AEBDSYCD is empty or not present in dataset."
"ft.xpt","CORE-000361",171,"VISIT and VISITNUM do not have a one-to-one relationship."
"tr.xpt","CORE-000201",168,"USUBJID value is missing in the DM dataset."
"tr.xpt","CORE-000168",168,"VISITNUM does not match any of the VISITNUM values in the SV dataset."
"vs.xpt","CORE-000361",164,"VISIT and VISITNUM do not have a one-to-one relationship."
"ds.xpt","CORE-000034",149,"DSDECOD equals 'DEATH' but DSSTDTC is not equal to DTHDTC in DM dataset."
"ft.xpt","CORE-000689",148,"FTTPT and FTTPTNUM do not have a one-to-one relationship per unique combination of VISITNUM and FTTPTREF values."
"ss.xpt","CORE-000259",145,"SSDTC in the SS dataset, where SSSTRESC is equal to 'DEAD', is equal to or after DTHDTC in the DM dataset."
"ae.xpt","CORE-000266",139,"AESER is not equal to 'N', but none of the seriousness events categories (AESCAN, AESCONG, AESDISAB, AESDTH, AESHOSP, AESLIFE, AESOD, AESMIE) are flagged as 'Y'."
"se.xpt","CORE-000201",119,"USUBJID value is missing in the DM dataset."
"ae.xpt","CORE-002015",116,"AEDECOD is completed but value is not a valid MedDRA preferred TERM."
"zb.xpt","CORE-000354",108,"The date portion of ZBDTC or RFSTDTC is incomplete, but ZBDY is not empty."
"pr.xpt","CORE-000139",108,"PRENDY is populated but either PRENDTC or RFSTDTC in the DM dataset do not contain complete values in the date portion."
"pr.xpt","CORE-000138",108,"PRSTDY is populated but either PRSTDTC or RFSTDTC in the DM dataset does not contain a complete date value."
"suppdm.xpt","CORE-000337",105,"Multiple races are populated in SUPPDM but RACE in the DM dataset does not equal 'MULTIPLE'."
"ta.xpt","CORE-000132",100,"ELEMENT and ETCD do not have a one-to-one relationship."
"ft.xpt","CORE-000028",100,"FTTPTREF is not populated but FTELTM is populated."
"ds.xpt","CORE-000249",99,"VISITDY does not match the VISITDY in the TV dataset for the corresponding VISITNUM."
"dm.xpt","CORE-000006",97,"DTHFL is not equal to 'Y' or empty."
"ce.xpt","CORE-000139",88,"CEENDY is populated but either CEENDTC or RFSTDTC in the DM dataset do not contain complete values in the date portion."
"ft.xpt","CORE-000168",86,"VISITNUM does not match any of the VISITNUM values in the SV dataset."
"ce.xpt","CORE-002047",80,"CEBODSYS is not a valid MedDRA system organ class."
"ce.xpt","CORE-002031",80,"CEBDSYCD is not a valid MedDRA system organ class code."
"ce.xpt","CORE-002014",80,"CEHLGT is not a valid MedDRA high level group term."
"ce.xpt","CORE-002013",80,"CEHLT is not a valid MedDRA high level term."
"ce.xpt","CORE-002012",80,"CEHLGTCD is not a valid MedDRA high level group term code."
"ce.xpt","CORE-002011",80,"CEHLTCD is not a valid MedDRA high level term code."
"ce.xpt","CORE-002010",80,"CEPTCD  is not a valid MedDRA preferred term code."
"ce.xpt","CORE-002009",80,"CELLTCD is not a valid MedDRA lowest level code."
"ce.xpt","CORE-002008",80,"CELLT is not a valid MedDRA lowest level TERM."
"ce.xpt","CORE-000362",80,"CESOCCD must be equal to CEBDSYCD when primary SOC is used for analysis."
"ce.xpt","CORE-000264",80,"CEBODSYS must be equal to CESOC when primary SOC is used for analysis."
"dm.xpt","CORE-000254",76,"DTHFL is not equal to 'Y' but AEOUT in AE dataset is equal to 'FATAL'."
"ds.xpt","CORE-000168",71,"VISITNUM does not match any of the VISITNUM values in the SV dataset."
"lb.xpt","CORE-000201",70,"USUBJID value is missing in the DM dataset."
"ts.xpt","CORE-000149",68,"TSVALNF must be populated when TSVAL is not populated."
"oe.xpt","CORE-000361",67,"VISIT and VISITNUM do not have a one-to-one relationship."
"suppae.xpt","CORE-000201",65,"USUBJID value is missing in the DM dataset."
"ho.xpt","CORE-000201",65,"USUBJID value is missing in the DM dataset."
"cm.xpt","CORE-000262",65,"RFSTDTC in DM the dataset is not populated but CMSTRF is populated."
"sv.xpt","CORE-000269",64,"VISIT value for planned visit does not match any VISIT value in the TV dataset."
"sm.xpt","CORE-002016",64,"MIDS value is not correctly sequenced chronologically per SMSTDTC for the corresponding MIDSTYPE in the TM dataset where TMRPT = 'Y'."
"dm.xpt","CORE-000010",62,"ARMCD value length should be <= 20."
"dm.xpt","CORE-002035",61,"RFENDTC is populated, but RFSTDTC is not populated."
"ae.xpt","CORE-000262",61,"RFSTDTC in DM the dataset is not populated but AESTRF is populated."
"be.xpt","CORE-000362",58,"BESOCCD must be equal to BEBDSYCD when primary SOC is used for analysis."
"be.xpt","CORE-000264",58,"BEBODSYS must be equal to BESOC when primary SOC is used for analysis."
"dm.xpt","CORE-000115",55,"ARM must not be equal to 'Screen Failure', 'Not Assigned', 'Unplanned Treatment' or 'Not Treated'."
"be.xpt","CORE-000356",55,"Required variable has a missing value."
"dm.xpt","CORE-000045",52,"ARMNRS must be populated when ARMCD is not populated."
"sj.xpt","CORE-000553",51,"SJENDY is not calculated correctly even though the date portion of SJENDTC is complete and the date portion of RFSTDTC is complete."
"dm.xpt","CORE-000046",51,"ARMNRS must be populated when ARM is not populated."
"se.xpt","CORE-000271",49,"EPOCH value does not match any of the EPOCH values in the TA dataset."
"vs.xpt","CORE-000168",48,"VISITNUM does not match any of the VISITNUM values in the SV dataset."
"dm.xpt","CORE-000185",47,"Length of ACTARMCD is greater than 20 characters"
"ds.xpt","CORE-000356",45,"Required variable has a missing value."
"ec.xpt","CORE-000004",44,"ECOCCUR indicates dose was not given, ECDOSE needs to be blank or greater than 0."
"co.xpt","CORE-000201",44,"USUBJID value is missing in the DM dataset."
"tv.xpt","CORE-000356",41,"Required variable has a missing value."
"sv.xpt","CORE-000038",40,"SVOCCUR is populated but SVPRESP is not equal to 'Y'."
"ss.xpt","CORE-000356",40,"Required variable has a missing value."
"mb.xpt","CORE-000356",39,"Required variable has a missing value."
"ss.xpt","CORE-000168",38,"VISITNUM does not match any of the VISITNUM values in the SV dataset."
"lb.xpt","CORE-000200",36,"LBSTAT is not populated and LBDRVFL is not equal to 'Y', but LBORRES is not populated."
"ec.xpt","CORE-000016",36,"ECPRESP should be populated as 'Y' when ECOCCUR is populated."
"ec.xpt","CORE-000014",36,"ECOCCUR must be null when ECPRESP is not equal to 'Y' or when ECSTAT is 'NOT DONE'."
"mh.xpt","CORE-000139",34,"MHENDY is populated but either MHENDTC or RFSTDTC in the DM dataset do not contain complete values in the date portion."
"lb.xpt","CORE-000356",31,"Required variable has a missing value."
"te.xpt","CORE-000132",30,"ELEMENT and ETCD do not have a one-to-one relationship."
"cm.xpt","CORE-000201",28,"USUBJID value is missing in the DM dataset."
"apdm.xpt","CORE-000550",27,"Variable is not listed in the Model List of Allowed Variables for the Observation Class and should be in supplemental qualifiers."
"ie.xpt","CORE-000354",25,"The date portion of IEDTC or RFSTDTC is incomplete, but IEDY is not empty."
"pp.xpt","CORE-000201",24,"USUBJID value is missing in the DM dataset."
"mh.xpt","CORE-000264",24,"MHBODSYS must be equal to MHSOC when primary SOC is used for analysis."
"ta.xpt","CORE-000010",21,"ARMCD value length should be <= 20."
"ss.xpt","CORE-000251",21,"SSSTRESC in the SS dataset is 'DEAD', but a record is missing in the DS dataset where DSDECOD = 'DEATH'."
"ta.xpt","CORE-000356",20,"Required variable has a missing value."
"sm.xpt","CORE-000553",20,"SMENDY is not calculated correctly even though the date portion of SMENDTC is complete and the date portion of RFSTDTC is complete."
"cm.xpt","CORE-000106",20,"CMENRTPT is not populated when CMENTPT is populated."
"ae.xpt","CORE-000362",20,"AESOCCD must be equal to AEBDSYCD when primary SOC is used for analysis."
"dm.xpt","CORE-000108",19,"A DD record is present, but DTHFL is not equal to 'Y'."
"ss.xpt","CORE-000178",18,"SSSTRESC is equal to 'DEAD' in the SS dataset, but SSDTC is less than the maximum DSSTDTC value in the DS dataset."
"se.xpt","CORE-000009",18,"ELEMENT variable has a non-null value when ETCD has a value of 'UNPLAN'"
"mh.xpt","CORE-000016",18,"MHPRESP should be populated as 'Y' when MHOCCUR is populated."
"mh.xpt","CORE-000014",18,"MHOCCUR must be null when MHPRESP is not equal to 'Y' or when MHSTAT is 'NOT DONE'."
"mb.xpt","CORE-000201",18,"USUBJID value is missing in the DM dataset."
"ho.xpt","CORE-000016",18,"HOPRESP should be populated as 'Y' when HOOCCUR is populated."
"ho.xpt","CORE-000014",18,"HOOCCUR must be null when HOPRESP is not equal to 'Y' or when HOSTAT is 'NOT DONE'."
"ce.xpt","CORE-000354",18,"The date portion of CEDTC or RFSTDTC is incomplete, but CEDY is not empty."
"ce.xpt","CORE-000016",18,"CEPRESP should be populated as 'Y' when CEOCCUR is populated."
"ce.xpt","CORE-000014",18,"CEOCCUR must be null when CEPRESP is not equal to 'Y' or when CESTAT is 'NOT DONE'."
"be.xpt","CORE-000016",18,"BEPRESP should be populated as 'Y' when BEOCCUR is populated."
"be.xpt","CORE-000014",18,"BEOCCUR must be null when BEPRESP is not equal to 'Y' or when BESTAT is 'NOT DONE'."
"apdrug1ex.xpt","CORE-000550",18,"Variable is not listed in the Model List of Allowed Variables for the Observation Class and should be in supplemental qualifiers."
"ie.xpt","CORE-000529",17,"IEDY is not calculated correctly even though the date portion of IEDTC is complete, the date portion of RFSTDTC is complete, and IEDY is not empty."
"se.xpt","CORE-000020",16,"TAETORD must be null when ETCD = 'UNPLAN'."
"relrec.xpt","CORE-000484",16,"Unique RELID is not present on multiple RELREC records within a subject."
"pr.xpt","CORE-000168",16,"VISITNUM does not match any of the VISITNUM values in the SV dataset."
"mh.xpt","CORE-002037",16,"MHDECOD is not consistent for records with identical MHTERM values."
"mh.xpt","CORE-000106",16,"MHENRTPT is not populated when MHENTPT is populated."
"dm1.xpt","CORE-000008",16,"SSSTRESC in the SS dataset is 'DEAD', but DTHFL in the DM dataset is not equal to 'Y'."
"ie.xpt","CORE-000227",15,"IETEST does not match any IETEST value in the TI dataset."
"ec.xpt","CORE-000260",15,"ECPRESP does not equal 'Y' or is not empty."
"ts.xpt","CORE-000150",14,"TSVALNF must not be populated when TSVAL is populated."
"pe.xpt","CORE-000201",14,"USUBJID value is missing in the DM dataset."
"pe.xpt","CORE-000168",14,"VISITNUM does not match any of the VISITNUM values in the SV dataset."
"pe.xpt","CORE-000140",14,"VISITNUM does not match any of the VISITNUM values in the TV dataset but VISITDY is populated."
"ex.xpt","CORE-000100",14,"EXTRTV is not populated when EXVAMT is populated."
"ag.xpt","CORE-000201",14,"USUBJID value is missing in the DM dataset."
"ae.xpt","CORE-000117",14,"AEPRESP is equal to 'Y' and AEOCCUR is not populated but AESTAT is not equal to 'NOT DONE'."
"su.xpt","CORE-000016",13,"SUPRESP should be populated as 'Y' when SUOCCUR is populated."
"su.xpt","CORE-000014",13,"SUOCCUR must be null when SUPRESP is not equal to 'Y' or when SUSTAT is 'NOT DONE'."
"sm.xpt","CORE-000201",13,"USUBJID value is missing in the DM dataset."
"pr.xpt","CORE-000016",13,"PRPRESP should be populated as 'Y' when PROCCUR is populated."
"pr.xpt","CORE-000014",13,"PROCCUR must be null when PRPRESP is not equal to 'Y' or when PRSTAT is 'NOT DONE'."
"ml.xpt","CORE-000016",13,"MLPRESP should be populated as 'Y' when MLOCCUR is populated."
"ml.xpt","CORE-000014",13,"MLOCCUR must be null when MLPRESP is not equal to 'Y' or when MLSTAT is 'NOT DONE'."
"mb.xpt","CORE-000200",13,"MBSTAT is not populated and MBDRVFL is not equal to 'Y', but MBORRES is not populated."
"ho.xpt","CORE-000257",13,"HOSTRTPT is completed, but HOSTTPT is not completed."
"ex.xpt","CORE-000201",13,"USUBJID value is missing in the DM dataset."
"ag.xpt","CORE-000016",13,"AGPRESP should be populated as 'Y' when AGOCCUR is populated."
"ag.xpt","CORE-000014",13,"AGOCCUR must be null when AGPRESP is not equal to 'Y' or when AGSTAT is 'NOT DONE'."
"lb.xpt","CORE-000299",12,"LBSTNRHI is populated when LBORRES is not a quantitative value."
"lb.xpt","CORE-000298",12,"LBSTNRLO is populated when LBORRES is not a quantitative value."
"lb.xpt","CORE-000290",12,"LBORNRLO is populated when LBORRES is not a quantitative value."
"lb.xpt","CORE-000289",12,"LBORNRHI is populated when LBORRES is not a quantitative value."
"ho.xpt","CORE-000139",12,"HOENDY is populated but either HOENDTC or RFSTDTC in the DM dataset do not contain complete values in the date portion."
"ho.xpt","CORE-000138",12,"HOSTDY is populated but either HOSTDTC or RFSTDTC in the DM dataset does not contain a complete date value."
"aplb.xpt","CORE-000550",12,"Variable is not listed in the Model List of Allowed Variables for the Observation Class and should be in supplemental qualifiers."
"vs.xpt","CORE-000200",11,"VSSTAT is not populated and VSDRVFL is not equal to 'Y', but VSORRES is not populated."
"sv.xpt","CORE-000140",11,"VISITNUM does not match any of the VISITNUM values in the TV dataset but VISITDY is populated."
"oe.xpt","CORE-000199",11,"OETEST value length is greater than 40 characters."
"ft.xpt","CORE-000200",11,"FTSTAT is not populated and FTDRVFL is not equal to 'Y', but FTORRES is not populated."
"cm.xpt","CORE-000016",11,"CMPRESP should be populated as 'Y' when CMOCCUR is populated."
"cm.xpt","CORE-000014",11,"CMOCCUR must be null when CMPRESP is not equal to 'Y' or when CMSTAT is 'NOT DONE'."
"be.xpt","CORE-002037",11,"BEDECOD is not consistent for records with identical BETERM values."
"td.xpt","CORE-000356",10,"Required variable has a missing value."
"suppec.xpt","CORE-001081",10,"Variable role specified in the define-xml does not match the variable role in the IG (for domains) or in the model (for custom domains)."
"suppdmmmm.xpt","CORE-001081",10,"Variable role specified in the define-xml does not match the variable role in the IG (for domains) or in the model (for custom domains)."
"suppdmdm.xpt","CORE-001081",10,"Variable role specified in the define-xml does not match the variable role in the IG (for domains) or in the model (for custom domains)."
"suppdm.xpt","CORE-001081",10,"Variable role specified in the define-xml does not match the variable role in the IG (for domains) or in the model (for custom domains)."
"suppae.xpt","CORE-000135",10,"IDVAR is populated but IDVARVAL is not populated."
"relsub.xpt","CORE-000201",10,"USUBJID value is missing in the DM dataset."
"oe.xpt","CORE-000168",10,"VISITNUM does not match any of the VISITNUM values in the SV dataset."
"ft.xpt","CORE-000356",10,"Required variable has a missing value."
"dm.xpt","CORE-000190",10,"AGE must be populated when AGEU is populated."
"ae.xpt","CORE-000260",10,"AEPRESP does not equal 'Y' or is not empty."
"zz.xpt","CORE-000362",9,"ZZSOCCD must be equal to ZZBDSYCD when primary SOC is used for analysis."
"zz.xpt","CORE-000264",9,"ZZBODSYS must be equal to ZZSOC when primary SOC is used for analysis."
"vs.xpt","CORE-000199",9,"VSTEST value length is greater than 40 characters."
"ts.xpt","CORE-000356",9,"Required variable has a missing value."
"ts.xpt","CORE-000041",9,"TSVAL is not populated with an ISO 21090 null flavor or null flavor description but TSVALNF is populated."
"ss.xpt","CORE-000361",9,"VISIT and VISITNUM do not have a one-to-one relationship."
"pr.xpt","CORE-000257",9,"PRSTRTPT is completed, but PRSTTPT is not completed."
"cm.xpt","CORE-000117",9,"CMPRESP is equal to 'Y' and CMOCCUR is not populated but CMSTAT is not equal to 'NOT DONE'."
"apmhe.xpt","CORE-000550",9,"Variable is not listed in the Model List of Allowed Variables for the Observation Class and should be in supplemental qualifiers."
"apmh.xpt","CORE-000550",9,"Variable is not listed in the Model List of Allowed Variables for the Observation Class and should be in supplemental qualifiers."
"xd.xpt","CORE-000201",8,"USUBJID value is missing in the DM dataset."
"vs.xpt","CORE-000021",8,"VSSTRESC should be populated when either VSORRES is provided or VSDRVFL = 'Y'."
"tv.xpt","CORE-000115",8,"ARM must not be equal to 'Screen Failure', 'Not Assigned', 'Unplanned Treatment' or 'Not Treated'."
"ta.xpt","CORE-000115",8,"ARM must not be equal to 'Screen Failure', 'Not Assigned', 'Unplanned Treatment' or 'Not Treated'."
"sm.xpt","CORE-000109",8,"SMSTDTC must be populated."
"ml.xpt","CORE-000356",8,"Required variable has a missing value."
"mh.xpt","CORE-000024",8,"MHBODSYS is not empty but MHBDSYCD is empty or not present in dataset."
"lb1.xpt","CORE-000168",8,"VISITNUM does not match any of the VISITNUM values in the SV dataset."
"lb.xpt","CORE-000083",8,"LBORRES must be populated when LBLOBXFL = 'Y' and either LBDRVFL is not present in dataset or is not populated."
"ex.xpt","CORE-000356",8,"Required variable has a missing value."
"dm2.xpt","CORE-000008",8,"SSSTRESC in the SS dataset is 'DEAD', but DTHFL in the DM dataset is not equal to 'Y'."
"co.xpt","CORE-000090",8,"RDOMAIN is not populated but IDVAR is populated."
"co.xpt","CORE-000017",8,"When IDVARVAL is populated then RDOMAIN should also be populated."
"cm.xpt","CORE-000356",8,"Required variable has a missing value."
"vs.xpt","CORE-000083",7,"VSORRES must be populated when VSLOBXFL = 'Y' and either VSDRVFL is not present in dataset or is not populated."
"suppec.xpt","CORE-000134",7,"RDOMAIN is not equal to 'DM' but IDVAR is not populated."
"se.xpt","CORE-000256",7,"SEUPDES is not populated but ETCD is equal to 'UNPLAN'."
"mb.xpt","CORE-000550",7,"Variable is not listed in the Model List of Allowed Variables for the Observation Class and should be in supplemental qualifiers."
"lb2.xpt","CORE-000168",7,"VISITNUM does not match any of the VISITNUM values in the SV dataset."
"dm.xpt","CORE-000122",7,"AGE or AGETXT must be populated when AGEU is populated."
"cm.xpt","CORE-000018",7,"CMOCCUR is not populated when CMPRESP is equal to 'Y' and CMSTAT is not populated."
"vs.xpt","CORE-000248",6,"When VSTPTREF is not populated, then VSRFTDTC should also be not populated."
"ts.xpt","CORE-000147",6,"TSPARMCD value length is greater than 8 characters."
"tr.xpt","CORE-000200",6,"TRSTAT is not populated and TRDRVFL is not equal to 'Y', but TRORRES is not populated."
"tr.xpt","CORE-000199",6,"TRTEST value length is greater than 40 characters."
"suppqscg.xpt","CORE-000201",6,"USUBJID value is missing in the DM dataset."
"suppdmmmm.xpt","CORE-000337",6,"Multiple races are populated in SUPPDM but RACE in the DM dataset does not equal 'MULTIPLE'."
"suppdmdm.xpt","CORE-000337",6,"Multiple races are populated in SUPPDM but RACE in the DM dataset does not equal 'MULTIPLE'."
"qspg.xpt","CORE-000201",6,"USUBJID value is missing in the DM dataset."
"qspg.xpt","CORE-000168",6,"VISITNUM does not match any of the VISITNUM values in the SV dataset."
"qscg.xpt","CORE-000201",6,"USUBJID value is missing in the DM dataset."
"qscg.xpt","CORE-000168",6,"VISITNUM does not match any of the VISITNUM values in the SV dataset."
"pc.xpt","CORE-000248",6,"When PCTPTREF is not populated, then PCRFTDTC should also be not populated."
"ms.xpt","CORE-000201",6,"USUBJID value is missing in the DM dataset."
"ml.xpt","CORE-000248",6,"When MLTPTREF is not populated, then MLRFTDTC should also be not populated."
"mi.xpt","CORE-000201",6,"USUBJID value is missing in the DM dataset."
"ie.xpt","CORE-000001",6,"IECAT equals 'INCLUSION', but IEORRES is not equal to 'N'."
"ds.xpt","CORE-000138",6,"DSSTDY is populated but either DSSTDTC or RFSTDTC in the DM dataset does not contain a complete date value."
"dm.xpt","CORE-000189",6,"AGEU must be populated when AGE is populated."
"aprelsub.xpt","CORE-000550",6,"Variable is not listed in the Model List of Allowed Variables for the Observation Class and should be in supplemental qualifiers."
"aplbs.xpt","CORE-000550",6,"Variable is not listed in the Model List of Allowed Variables for the Observation Class and should be in supplemental qualifiers."
"aplbef.xpt","CORE-000550",6,"Variable is not listed in the Model List of Allowed Variables for the Observation Class and should be in supplemental qualifiers."
"zb.xpt","CORE-000200",5,"ZBSTAT is not populated and ZBDRVFL is not equal to 'Y', but ZBORRES is not populated."
"zb.xpt","CORE-000083",5,"ZBORRES must be populated when ZBLOBXFL = 'Y' and either ZBDRVFL is not present in dataset or is not populated."
"ts.xpt","CORE-000582",5,"TSVALn must be populated when TSVAL(n+1) is populated."
"ts.xpt","CORE-000294",5,"TSVAL for TSPARMCD = 'AGEMAX' is populated but value is not ISO 8601 format."
"ts.xpt","CORE-000153",5,"TSVCDREF is not populated when TSVCDVER is populated."
"te.xpt","CORE-000143",5,"ETCD value length is greater than 8 characters."
"sv.xpt","CORE-000039",5,"VISITNUM value for planned visit does not match any VISITNUM value in the TV dataset."
"sv.xpt","CORE-000037",5,"SVPRESP must be 'Y' or null."
"se.xpt","CORE-000356",5,"Required variable has a missing value."
"relrec.xpt","CORE-000201",5,"USUBJID value is missing in the DM dataset."
"lb1.xpt","CORE-002039",5,"LBENDTC is populated, but LBDTC is not populated."
"ie.xpt","CORE-000025",5,"IESTRESC is not equal to IEORRES."
"ho.xpt","CORE-000085",5,"HOSTTPT is completed, but HOSTRTPT is not completed."
"dm1.xpt","CORE-000239",5,"RFXSTDTC does not equal the earliest value of EXSTDTC in the EX dataset."
"dm1.xpt","CORE-000238",5,"RFXENDTC does not equal the latest value of EXSTDTC or EXENDTC in the EX dataset."
"co.xpt","CORE-000168",5,"VISITNUM does not match any of the VISITNUM values in the SV dataset."
"ae.xpt","CORE-000550",5,"Variable is not listed in the Model List of Allowed Variables for the Observation Class and should be in supplemental qualifiers."
"ta.xpt","CORE-000534",4,"TAETORD must be an integer."
"sv.xpt","CORE-000550",4,"Variable is not listed in the Model List of Allowed Variables for the Observation Class and should be in supplemental qualifiers."
"sv.xpt","CORE-000036",4,"VISIT value for planned visit does not match any VISIT value in the TV dataset."
"ss.xpt","CORE-000140",4,"VISITNUM does not match any of the VISITNUM values in the TV dataset but VISITDY is populated."
"sm.xpt","CORE-000139",4,"SMENDY is populated but either SMENDTC or RFSTDTC in the DM dataset do not contain complete values in the date portion."
"sm.xpt","CORE-000138",4,"SMSTDY is populated but either SMSTDTC or RFSTDTC in the DM dataset does not contain a complete date value."
"se.xpt","CORE-000143",4,"ETCD value length is greater than 8 characters."
"se.xpt","CORE-000095",4,"SEUPDES is populated but ETCD is not equal to 'UNPLAN'."
"relsub.xpt","CORE-000232",4,"When RSUBJID is populated, RSUBJID cannot be equal to POOLID."
"relrec.xpt","CORE-000136",4,"IDVARVAL and USUBJID are not completed, but IDVAR is populated with SEQ."
"pr.xpt","CORE-000085",4,"PRSTTPT is completed, but PRSTRTPT is not completed."
"mh.xpt","CORE-000260",4,"MHPRESP does not equal 'Y' or is not empty."
"lb.xpt","CORE-000550",4,"Variable is not listed in the Model List of Allowed Variables for the Observation Class and should be in supplemental qualifiers."
"lb.xpt","CORE-000248",4,"When LBTPTREF is not populated, then LBRFTDTC should also be not populated."
"ie.xpt","CORE-000011",4,"IEORRES is not equal to 'Y', but IECAT is equal to 'EXCLUSION'."
"ec.xpt","CORE-002055",4,"Negative value of Study Day variable."
"dm2.xpt","CORE-002053",4,"RFCENDTC is populated, but RFCSTDTC is not populated."
"dm2.xpt","CORE-000239",4,"RFXSTDTC does not equal the earliest value of EXSTDTC in the EX dataset."
"dm2.xpt","CORE-000238",4,"RFXENDTC does not equal the latest value of EXSTDTC or EXENDTC in the EX dataset."
"dm1.xpt","CORE-002053",4,"RFCENDTC is populated, but RFCSTDTC is not populated."
"dm1.xpt","CORE-000748",4,"Subject is assigned to an arm code (randomized) but has no record in the EX dataset."
"dm.xpt","CORE-002036",4,"RFXENDTC is populated, but RFXSTDTC is not populated."
"dm.xpt","CORE-000088",4,"SETCD value length is greater than 8 characters."
"be.xpt","CORE-002049",4,"BEDY is greater than BESTDY."
"ag.xpt","CORE-000117",4,"AGPRESP is equal to 'Y' and AGOCCUR is not populated but AGSTAT is not equal to 'NOT DONE'."
"ag.xpt","CORE-000100",4,"AGTRTV is not populated when AGVAMT is populated."
"ag.xpt","CORE-000089",4,"AGVAMT must not be populated when AGTRTV is not populated."
"ag.xpt","CORE-000018",4,"AGOCCUR is not populated when AGPRESP is equal to 'Y' and AGSTAT is not populated."
"ae.xpt","CORE-000106",4,"AEENRTPT is not populated when AEENTPT is populated."
"vs.xpt","CORE-000028",3,"VSTPTREF is not populated but VSELTM is populated."
"ts.xpt","CORE-000148",3,"TSPARM value length is greater than 40 characters."
"supplb.xpt","CORE-000201",3,"USUBJID value is missing in the DM dataset."
"suppec.xpt","CORE-000135",3,"IDVAR is populated but IDVARVAL is not populated."
"suppae.xpt","CORE-000222",3,"QLABEL value length is greater than 40 characters."
"su.xpt","CORE-000260",3,"SUPRESP does not equal 'Y' or is not empty."
"se.xpt","CORE-000527",3,"SEENDTC is not populated when element is not the last."
"se.xpt","CORE-000002",3,"SESTDTC is not populated."
"relsub.xpt","CORE-000356",3,"Required variable has a missing value."
"pe.xpt","CORE-000200",3,"PESTAT is not populated and PEDRVFL is not equal to 'Y', but PEORRES is not populated."
"pe.xpt","CORE-000082",3,"PESTRESC must be null when PEORRES is null."
"pc.xpt","CORE-000028",3,"PCTPTREF is not populated but PCELTM is populated."
"ml.xpt","CORE-000028",3,"MLTPTREF is not populated but MLELTM is populated."
"mh.xpt","CORE-000117",3,"MHPRESP is equal to 'Y' and MHOCCUR is not populated but MHSTAT is not equal to 'NOT DONE'."
"lb2.xpt","CORE-002054",3,"LBENINT is populated, but LBSTINT is not populated."
"lb.xpt","CORE-000295",3,"LBSTREFN is not populated when LBSTREFC is populated."
"lb.xpt","CORE-000237",3,"LBSCAT is populated but is equal to LBCAT."
"lb.xpt","CORE-000021",3,"LBSTRESC should be populated when either LBORRES is provided or LBDRVFL = 'Y'."
"ho.xpt","CORE-000260",3,"HOPRESP does not equal 'Y' or is not empty."
"ex.xpt","CORE-000005",3,"EXDOSE should be 0 when EXTRT = PLACEBO."
"ds.xpt","CORE-000024",3,"DSBODSYS is not empty but DSBDSYCD is empty or not present in dataset."
"co.xpt","CORE-000550",3,"Variable is not listed in the Model List of Allowed Variables for the Observation Class and should be in supplemental qualifiers."
"ce.xpt","CORE-000085",3,"CESTTPT is completed, but CESTRTPT is not completed."
"zz.xpt","CORE-000550",2,"Variable is not listed in the Model List of Allowed Variables for the Observation Class and should be in supplemental qualifiers."
"zm.xpt","CORE-000550",2,"Variable is not listed in the Model List of Allowed Variables for the Observation Class and should be in supplemental qualifiers."
"zm.xpt","CORE-000376",2,"First 2 characters of prefixed variable within custom domain do not match the DOMAIN value."
"xc.xpt","CORE-000362",2,"XCSOCCD must be equal to XCBDSYCD when primary SOC is used for analysis."
"xc.xpt","CORE-000264",2,"XCBODSYS must be equal to XCSOC when primary SOC is used for analysis."
"vs.xpt","CORE-000356",2,"Required variable has a missing value."
"ts.xpt","CORE-000550",2,"Variable is not listed in the Model List of Allowed Variables for the Observation Class and should be in supplemental qualifiers."
"ts.xpt","CORE-000151",2,"TSVAL must be populated when TSVAL1 is populated."
"te.xpt","CORE-000356",2,"Required variable has a missing value."
"ta.xpt","CORE-000143",2,"ETCD value length is greater than 8 characters."
"suppqsswls.xpt","CORE-000201",2,"USUBJID value is missing in the DM dataset."
"suppqssw.xpt","CORE-000201",2,"USUBJID value is missing in the DM dataset."
"suppqscqi.xpt","CORE-000201",2,"USUBJID value is missing in the DM dataset."
"suppqscq.xpt","CORE-000201",2,"USUBJID value is missing in the DM dataset."
"supplb.xpt","CORE-000134",2,"RDOMAIN is not equal to 'DM' but IDVAR is not populated."
"suppdm.xpt","CORE-000222",2,"QLABEL value length is greater than 40 characters."
"suppapfamh.xpt","CORE-000134",2,"RDOMAIN is not equal to 'DM' but IDVAR is not populated."
"suppae.xpt","CORE-000134",2,"RDOMAIN is not equal to 'DM' but IDVAR is not populated."
"sqapfamh.xpt","CORE-000134",2,"RDOMAIN is not equal to 'DM' but IDVAR is not populated."
"sm.xpt","CORE-000356",2,"Required variable has a missing value."
"relsub.xpt","CORE-000231",2,"When RSUBJID is populated the value cannot be equal to USUBJID."
"qscgi2.xpt","CORE-000201",2,"USUBJID value is missing in the DM dataset."
"qscgi2.xpt","CORE-000168",2,"VISITNUM does not match any of the VISITNUM values in the SV dataset."
"qscgi.xpt","CORE-000201",2,"USUBJID value is missing in the DM dataset."
"qscgi.xpt","CORE-000168",2,"VISITNUM does not match any of the VISITNUM values in the SV dataset."
"pr.xpt","CORE-000260",2,"PRPRESP does not equal 'Y' or is not empty."
"pp.xpt","CORE-000356",2,"Required variable has a missing value."
"mb.xpt","CORE-000021",2,"MBSTRESC should be populated when either MBORRES is provided or MBDRVFL = 'Y'."
"lb2.xpt","CORE-002039",2,"LBENDTC is populated, but LBDTC is not populated."
"lb2.xpt","CORE-000106",2,"LBENRTPT is not populated when LBENTPT is populated."
"lb1.xpt","CORE-002054",2,"LBENINT is populated, but LBSTINT is not populated."
"lb1.xpt","CORE-000106",2,"LBENRTPT is not populated when LBENTPT is populated."
"lb.xpt","CORE-000271",2,"EPOCH value does not match any of the EPOCH values in the TA dataset."
"lb.xpt","CORE-000116",2,"LBSPCUFL must be null or equal to 'N'."
"ie.xpt","CORE-000356",2,"Required variable has a missing value."
"ex.xpt","CORE-002055",2,"Negative value of Study Day variable."
"ex.xpt","CORE-000271",2,"EPOCH value does not match any of the EPOCH values in the TA dataset."
"ds.xpt","CORE-000271",2,"EPOCH value does not match any of the EPOCH values in the TA dataset."
"ds.xpt","CORE-000033",2,"DSDECOD is not equal to 'COMPLETED' when DSTERM equals 'COMPLETED'."
"dm.xpt","CORE-000550",2,"Variable is not listed in the Model List of Allowed Variables for the Observation Class and should be in supplemental qualifiers."
"cm.xpt","CORE-002052",2,"CMCLAS is not a valid WHODrug dictionary medication class term."
"cm.xpt","CORE-000260",2,"CMPRESP does not equal 'Y' or is not empty."
"cm.xpt","CORE-000085",2,"CMSTTPT is completed, but CMSTRTPT is not completed."
"be.xpt","CORE-000260",2,"BEPRESP does not equal 'Y' or is not empty."
"ae.xpt","CORE-000248",2,"When AETPTREF is not populated, then AERFTDTC should also be not populated."
"ae.xpt","CORE-000237",2,"AESCAT is populated but is equal to AECAT."
"ae.xpt","CORE-000131",2,"AECONTRT is populated, but not equal to 'N' or 'Y'."
"ae.xpt","CORE-000130",2,"AESMIE is populated, but not equal to 'N' or 'Y'."
"ae.xpt","CORE-000126",2,"AESDTH is populated, but not equal to 'N' or 'Y'."
"zb.xpt","CORE-000550",1,"Variable is not listed in the Model List of Allowed Variables for the Observation Class and should be in supplemental qualifiers."
"zb.xpt","CORE-000376",1,"First 2 characters of prefixed variable within custom domain do not match the DOMAIN value."
"vs.xpt","CORE-000243",1,"VSREASEX must not be present."
"vs.xpt","CORE-000242",1,"VSEXCLFL must not be present."
"vs.xpt","CORE-000074",1,"VSIMPLBL must not be present."
"vs.xpt","CORE-000056",1,"VSREASEX must not be present."
"vs.xpt","CORE-000055",1,"VSEXCLFL must not be present."
"vs.xpt","CORE-000052",1,"VSIMPLBL must not be present."
"tx.xpt","CORE-002040",1,"Custom domain is not based on one of the observation classes."
"tv.xpt","CORE-000157",1,"ARMCD value length is greater than 20 characters."
"tt.xpt","CORE-002040",1,"Custom domain is not based on one of the observation classes."
"tt.xpt","CORE-000042",1,"TT dataset must not be present."
"tr.xpt","CORE-000078",1,"TRLAT must not be present."
"tr.xpt","CORE-000077",1,"TRDIR must not be present."
"tr.xpt","CORE-000076",1,"TRPORTOT must not be present."
"tr.xpt","CORE-000003",1,"TRLOC should not be present in TR dataset."
"tp.xpt","CORE-002040",1,"Custom domain is not based on one of the observation classes."
"tp.xpt","CORE-000058",1,"RPHASE must not be present."
"tp.xpt","CORE-000043",1,"TP dataset must not be present."
"sv.xpt","CORE-000356",1,"Required variable has a missing value."
"suppqsswls.xpt","CORE-002040",1,"Custom domain is not based on one of the observation classes."
"suppqsswls.xpt","CORE-000778",1,"Split dataset name length of Associated Persons non-supplemental qualifier dataset is shorter than or equal to 4 or greater than 6."
"suppqsswls.xpt","CORE-000357",1,"Split dataset name length of SUPPQS dataset > 8."
"suppqsswls.xpt","CORE-000293",1,"Length of SUPPSUPPQS dataset name is greater than 8 characters."
"suppqssw.xpt","CORE-002040",1,"Custom domain is not based on one of the observation classes."
"suppqssw.xpt","CORE-000778",1,"Split dataset name length of Associated Persons non-supplemental qualifier dataset is shorter than or equal to 4 or greater than 6."
"suppqscqi.xpt","CORE-002040",1,"Custom domain is not based on one of the observation classes."
"suppqscqi.xpt","CORE-000778",1,"Split dataset name length of Associated Persons non-supplemental qualifier dataset is shorter than or equal to 4 or greater than 6."
"suppqscqi.xpt","CORE-000357",1,"Split dataset name length of SUPPQS dataset > 8."
"suppqscqi.xpt","CORE-000293",1,"Length of SUPPSUPPQS dataset name is greater than 8 characters."
"suppqscq.xpt","CORE-002040",1,"Custom domain is not based on one of the observation classes."
"suppqscq.xpt","CORE-000778",1,"Split dataset name length of Associated Persons non-supplemental qualifier dataset is shorter than or equal to 4 or greater than 6."
"suppqscg.xpt","CORE-002040",1,"Custom domain is not based on one of the observation classes."
"suppqscg.xpt","CORE-000778",1,"Split dataset name length of Associated Persons non-supplemental qualifier dataset is shorter than or equal to 4 or greater than 6."
"supplb.xpt","CORE-002040",1,"Custom domain is not based on one of the observation classes."
"supplb.xpt","CORE-000356",1,"Required variable has a missing value."
"suppec.xpt","CORE-002040",1,"Custom domain is not based on one of the observation classes."
"suppec.xpt","CORE-000356",1,"Required variable has a missing value."
"suppdmmmm.xpt","CORE-002040",1,"Custom domain is not based on one of the observation classes."
"suppdmmmm.xpt","CORE-000778",1,"Split dataset name length of Associated Persons non-supplemental qualifier dataset is shorter than or equal to 4 or greater than 6."
"suppdmmmm.xpt","CORE-000357",1,"Split dataset name length of SUPPDM dataset > 8."
"suppdmmmm.xpt","CORE-000293",1,"Length of SUPPSUPPDM dataset name is greater than 8 characters."
"suppdmdm.xpt","CORE-002040",1,"Custom domain is not based on one of the observation classes."
"suppdmdm.xpt","CORE-000778",1,"Split dataset name length of Associated Persons non-supplemental qualifier dataset is shorter than or equal to 4 or greater than 6."
"suppdm.xpt","CORE-002040",1,"Custom domain is not based on one of the observation classes."
"suppapfamh.xpt","CORE-002040",1,"Custom domain is not based on one of the observation classes."
"suppapfamh.xpt","CORE-000778",1,"Split dataset name length of Associated Persons non-supplemental qualifier dataset is shorter than or equal to 4 or greater than 6."
"suppapfamh.xpt","CORE-000357",1,"Split dataset name length of SUPPAP dataset > 8."
"suppapfamh.xpt","CORE-000293",1,"Length of SUPPSUPPAP dataset name is greater than 8 characters."
"suppae.xpt","CORE-002040",1,"Custom domain is not based on one of the observation classes."
"ss.xpt","CORE-000201",1,"USUBJID value is missing in the DM dataset."
"sqapfamh.xpt","CORE-002040",1,"Custom domain is not based on one of the observation classes."
"sqapfamh.xpt","CORE-000778",1,"Split dataset name length of Associated Persons non-supplemental qualifier dataset is shorter than or equal to 4 or greater than 6."
"sj.xpt","CORE-002040",1,"Custom domain is not based on one of the observation classes."
"sj.xpt","CORE-000058",1,"RPHASE must not be present."
"sj.xpt","CORE-000044",1,"SJ dataset must not be present."
"qspg.xpt","CORE-000778",1,"Split dataset name length of Associated Persons non-supplemental qualifier dataset is shorter than or equal to 4 or greater than 6."
"qscgi2.xpt","CORE-000510",1,"Split dataset name is not 3 or 4 characters in length."
"qscgi.xpt","CORE-000510",1,"Split dataset name is not 3 or 4 characters in length."
"qscg.xpt","CORE-000778",1,"Split dataset name length of Associated Persons non-supplemental qualifier dataset is shorter than or equal to 4 or greater than 6."
"pp.xpt","CORE-000200",1,"PPSTAT is not populated and PPDRVFL is not equal to 'Y', but PPORRES is not populated."
"pp.xpt","CORE-000165",1,"PPTPTREF is not present in dataset when PPRFTDTC is present in dataset."
"pc.xpt","CORE-000355",1,"Required variable is missing from the dataset."
"ml.xpt","CORE-000260",1,"MLPRESP does not equal 'Y' or is not empty."
"mi.xpt","CORE-000355",1,"Required variable is missing from the dataset."
"mi.xpt","CORE-000113",1,"MICONCU must not be present."
"mi.xpt","CORE-000112",1,"MICONC must not be present."
"mi.xpt","CORE-000111",1,"MIAGENT must not be present."
"mh.xpt","CORE-000356",1,"Required variable has a missing value."
"mh.xpt","CORE-000018",1,"MHOCCUR is not populated when MHPRESP is equal to 'Y' and MHSTAT is not populated."
"lb2.xpt","CORE-000778",1,"Split dataset name length of Associated Persons non-supplemental qualifier dataset is shorter than or equal to 4 or greater than 6."
"lb1.xpt","CORE-000778",1,"Split dataset name length of Associated Persons non-supplemental qualifier dataset is shorter than or equal to 4 or greater than 6."
"lb.xpt","CORE-000247",1,"LBRESLOC must not be present."
"lb.xpt","CORE-000246",1,"LBNOMLBL must not be present."
"lb.xpt","CORE-000245",1,"LBNOMDY must not be present."
"lb.xpt","CORE-000244",1,"LBDETECT must not be present."
"lb.xpt","CORE-000243",1,"LBREASEX must not be present."
"lb.xpt","CORE-000242",1,"LBEXCLFL must not be present."
"lb.xpt","CORE-000226",1,"LBDTHREL must not be present."
"lb.xpt","CORE-000140",1,"VISITNUM does not match any of the VISITNUM values in the TV dataset but VISITDY is populated."
"lb.xpt","CORE-000074",1,"LBIMPLBL must not be present."
"lb.xpt","CORE-000067",1,"LBDETECT must not be present."
"lb.xpt","CORE-000066",1,"LBRPENDY must not be present."
"lb.xpt","CORE-000065",1,"LBRPSTDY must not be present."
"lb.xpt","CORE-000064",1,"LBRPDY must not be present."
"lb.xpt","CORE-000061",1,"RPPLENDY must not be present."
"lb.xpt","CORE-000060",1,"RPPLSTDY must not be present."
"lb.xpt","CORE-000059",1,"RPPLDY must not be present."
"lb.xpt","CORE-000058",1,"RPHASE must not be present."
"lb.xpt","CORE-000057",1,"FETUSID must not be present."
"lb.xpt","CORE-000056",1,"LBREASEX must not be present."
"lb.xpt","CORE-000055",1,"LBEXCLFL must not be present."
"lb.xpt","CORE-000054",1,"LBDTHREL must not be present."
"lb.xpt","CORE-000052",1,"LBIMPLBL must not be present."
"lb.xpt","CORE-000051",1,"LBRSTMOD must not be present."
"lb.xpt","CORE-000050",1,"LBRSTIND must not be present."
"lb.xpt","CORE-000049",1,"LBUSCHFL must not be present."
"ie.xpt","CORE-000228",1,"IETESTCD value does not match any IETESTCD value in the TI dataset."
"ie.xpt","CORE-000200",1,"IESTAT is not populated and IEDRVFL is not equal to 'Y', but IEORRES is not populated."
"ie.xpt","CORE-000021",1,"IESTRESC should be populated when either IEORRES is provided or IEDRVFL = 'Y'."
"gf.xpt","CORE-000355",1,"Required variable is missing from the dataset."
"ft.xpt","CORE-000226",1,"FTDTHREL must not be present."
"ft.xpt","CORE-000083",1,"FTORRES must be populated when FTLOBXFL = 'Y' and either FTDRVFL is not present in dataset or is not populated."
"ft.xpt","CORE-000054",1,"FTDTHREL must not be present."
"ex.xpt","CORE-000048",1,"EXMETHOD must not be present."
"eg.xpt","CORE-000355",1,"Required variable is missing from the dataset."
"dv.xpt","CORE-000356",1,"Required variable has a missing value."
"dm2.xpt","CORE-000778",1,"Split dataset name length of Associated Persons non-supplemental qualifier dataset is shorter than or equal to 4 or greater than 6."
"dm1.xpt","CORE-000778",1,"Split dataset name length of Associated Persons non-supplemental qualifier dataset is shorter than or equal to 4 or greater than 6."
"dm.xpt","CORE-000176",1,"SBSTRAIN must not be present."
"dm.xpt","CORE-000175",1,"STRAIN must not be present."
"dm.xpt","CORE-000174",1,"SPECIES must not be present."
"dm.xpt","CORE-000071",1,"SBSTRAIN must not be present."
"dm.xpt","CORE-000070",1,"STRAIN must not be present."
"dm.xpt","CORE-000069",1,"SPECIES must not be present."
"dm.xpt","CORE-000068",1,"AGETXT must not be present."
"dd.xpt","CORE-000201",1,"USUBJID value is missing in the DM dataset."
"co.xpt","CORE-000187",1,"CODTC must be null when IDVAR is not null."
"cm.xpt","CORE-000550",1,"Variable is not listed in the Model List of Allowed Variables for the Observation Class and should be in supplemental qualifiers."
"cm.xpt","CORE-000246",1,"CMNOMLBL must not be present."
"cm.xpt","CORE-000245",1,"CMNOMDY must not be present."
"cm.xpt","CORE-000244",1,"CMDETECT must not be present."
"cm.xpt","CORE-000067",1,"CMDETECT must not be present."
"cm.xpt","CORE-000066",1,"CMRPENDY must not be present."
"cm.xpt","CORE-000065",1,"CMRPSTDY must not be present."
"cm.xpt","CORE-000064",1,"CMRPDY must not be present."
"cm.xpt","CORE-000061",1,"RPPLENDY must not be present."
"cm.xpt","CORE-000060",1,"RPPLSTDY must not be present."
"cm.xpt","CORE-000059",1,"RPPLDY must not be present."
"cm.xpt","CORE-000058",1,"RPHASE must not be present."
"cm.xpt","CORE-000057",1,"FETUSID must not be present."
"cm.xpt","CORE-000051",1,"CMRSTMOD must not be present."
"cm.xpt","CORE-000050",1,"CMRSTIND must not be present."
"cm.xpt","CORE-000048",1,"CMMETHOD must not be present."
"ce.xpt","CORE-000356",1,"Required variable has a missing value."
"ce.xpt","CORE-000260",1,"CEPRESP does not equal 'Y' or is not empty."
"aprelsub.xpt","CORE-002040",1,"Custom domain is not based on one of the observation classes."
"aprelsub.xpt","CORE-000778",1,"Split dataset name length of Associated Persons non-supplemental qualifier dataset is shorter than or equal to 4 or greater than 6."
"aprelsub.xpt","CORE-000234",1,"RSUBJID must not be populated when RDEVID is populated."
"apmhe.xpt","CORE-002040",1,"Custom domain is not based on one of the observation classes."
"apmh.xpt","CORE-002040",1,"Custom domain is not based on one of the observation classes."
"apmh.xpt","CORE-000778",1,"Split dataset name length of Associated Persons non-supplemental qualifier dataset is shorter than or equal to 4 or greater than 6."
"aplbs.xpt","CORE-002040",1,"Custom domain is not based on one of the observation classes."
"aplbef.xpt","CORE-002040",1,"Custom domain is not based on one of the observation classes."
"aplb.xpt","CORE-002040",1,"Custom domain is not based on one of the observation classes."
"aplb.xpt","CORE-000778",1,"Split dataset name length of Associated Persons non-supplemental qualifier dataset is shorter than or equal to 4 or greater than 6."
"aplb.xpt","CORE-000234",1,"RSUBJID must not be populated when RDEVID is populated."
"apdrug1ex.xpt","CORE-002040",1,"Custom domain is not based on one of the observation classes."
"apdrug1ex.xpt","CORE-000778",1,"Split dataset name length of Associated Persons non-supplemental qualifier dataset is shorter than or equal to 4 or greater than 6."
"apdrug1ex.xpt","CORE-000357",1,"Split dataset name length of AP dataset > 8."
"apdm.xpt","CORE-002040",1,"Custom domain is not based on one of the observation classes."
"apdm.xpt","CORE-000778",1,"Split dataset name length of Associated Persons non-supplemental qualifier dataset is shorter than or equal to 4 or greater than 6."
"ag.xpt","CORE-000260",1,"AGPRESP does not equal 'Y' or is not empty."
"ae.xpt","CORE-000271",1,"EPOCH value does not match any of the EPOCH values in the TA dataset."
"ae.xpt","CORE-000246",1,"AENOMLBL must not be present."
"ae.xpt","CORE-000245",1,"AENOMDY must not be present."
"ae.xpt","CORE-000244",1,"AEDETECT must not be present."
"ae.xpt","CORE-000129",1,"AESOD is populated, but not equal to 'N' or 'Y'."
"ae.xpt","CORE-000128",1,"AESLIFE is populated, but not equal to 'N' or 'Y'."
"ae.xpt","CORE-000127",1,"AESHOSP is populated, but not equal to 'N' or 'Y'."
"ae.xpt","CORE-000125",1,"AESDISAB is populated, but not equal to 'N' or 'Y'."
"ae.xpt","CORE-000124",1,"AESCONG is populated, but not equal to 'Y' or 'N'."
"ae.xpt","CORE-000123",1,"AESCAN is populated, but not equal to 'N' or 'Y'."
"ae.xpt","CORE-000114",1,"AEEVDTYP must not be present."
"ae.xpt","CORE-000087",1,"AESER is populated, but not equal to 'N' or 'Y'."
"ae.xpt","CORE-000075",1,"AEREASND must not be present."
"ae.xpt","CORE-000067",1,"AEDETECT must not be present."
"ae.xpt","CORE-000066",1,"AERPENDY must not be present."
"ae.xpt","CORE-000065",1,"AERPSTDY must not be present."
"ae.xpt","CORE-000064",1,"AERPDY must not be present."
"ae.xpt","CORE-000061",1,"RPPLENDY must not be present."
"ae.xpt","CORE-000060",1,"RPPLSTDY must not be present."
"ae.xpt","CORE-000059",1,"RPPLDY must not be present."
"ae.xpt","CORE-000058",1,"RPHASE must not be present."
"ae.xpt","CORE-000057",1,"FETUSID must not be present."
"ae.xpt","CORE-000049",1,"AEUSCHFL must not be present."
"ae.xpt","CORE-000023",1,"AETOX should not be present when AETOXGR is not present."
"ae.xpt","CORE-000012",1,"AEOCCUR should not be present in AE dataset."
