{
  "datasets": [
    {
      "filename": "vs.xpt",
      "label": "Vital Signs",
      "domain": "VS",
      "variables": [
        {
          "name": "STUDYID",
          "label": "Study Identifier",
          "type": "Char",
          "length": 12
        },
        {
          "name": "DOMAIN",
          "label": "Domain Abbreviation",
          "type": "Char",
          "length": 2
        },
        {
          "name": "USUBJID",
          "label": "Unique Subject Identifier",
          "type": "Char",
          "length": 8
        },
        {
          "name": "VSSEQ",
          "label": "Sequence Number",
          "type": "Num",
          "length": 8
        },
        {
          "name": "VSNOTEST",
          "label": "Vital Signs Test Short Name",
          "type": "Char",
          "length": 8
        },
        {
          "name": "VSTEST",
          "label": "Vital Signs Test Name",
          "type": "Char",
          "length": 24
        },
        {
          "name": "VSPOS",
          "label": "Vital Signs Position of Subject",
          "type": "Char",
          "length": 8
        },
        {
          "name": "VSORRES",
          "label": "Result or Finding in Original Units",
          "type": "Char",
          "length": 8
        },
        {
          "name": "VSORRESU",
          "label": "Original Units",
          "type": "Char",
          "length": 9
        },
        {
          "name": "VSSTRESC",
          "label": "Character Result/Finding in Std Format",
          "type": "Char",
          "length": 200
        },
        {
          "name": "VSSTRESN",
          "label": "Numeric Result/Finding in Standard Units",
          "type": "Num",
          "length": 8
        },
        {
          "name": "VSSTRESU",
          "label": "Standard Units",
          "type": "Char",
          "length": 9
        },
        {
          "name": "VSSTAT",
          "label": "Completion Status",
          "type": "Char",
          "length": 8
        },
        {
          "name": "VSLOC",
          "label": "Location of Vital Signs Measurement",
          "type": "Char",
          "length": 11
        },
        {
          "name": "VSLOBXFL",
          "label": "Last Observation Before Exposure Flag",
          "type": "Char",
          "length": 1
        },
        {
          "name": "VSREPNUM",
          "label": "Repetition Number",
          "type": "Num",
          "length": 8
        },
        {
          "name": "VISITNUM",
          "label": "Visit Number",
          "type": "Num",
          "length": 8
        },
        {
          "name": "VISIT",
          "label": "Visit Name",
          "type": "Char",
          "length": 200
        },
        {
          "name": "EPOCH",
          "label": "Epoch",
          "type": "Char",
          "length": 9
        },
        {
          "name": "VSDTC",
          "label": "Date/Time of Measurements",
          "type": "Char",
          "length": 10
        },
        {
          "name": "VSDY",
          "label": "Study Day of Vital Signs",
          "type": "Num",
          "length": 8
        }
      ],
      "records": {
        "STUDYID": [
          "CDISCPILOT01",
          "CDISCPILOT01",
          "CDISCPILOT01",
          "CDISCPILOT01",
          "CDISCPILOT01",
          "CDISCPILOT01",
          "CDISCPILOT01",
          "CDISCPILOT01",
          "CDISCPILOT01",
          "CDISCPILOT01",
          "CDISCPILOT01",
          "CDISCPILOT01",
          "CDISCPILOT01",
          "CDISCPILOT01",
          "CDISCPILOT01",
          "CDISCPILOT01",
          "CDISCPILOT01",
          "CDISCPILOT01",
          "CDISCPILOT01",
          "CDISCPILOT01",
          "CDISCPILOT01",
          "CDISCPILOT01",
          "CDISCPILOT01",
          "CDISCPILOT01",
          "CDISCPILOT01",
          "CDISCPILOT01",
          "CDISCPILOT01",
          "CDISCPILOT01",
          "CDISCPILOT01",
          "CDISCPILOT01",
          "CDISCPILOT01",
          "CDISCPILOT01",
          "CDISCPILOT01",
          "CDISCPILOT01"
        ],
        "DOMAIN": [
          "VS",
          "VS",
          "VS",
          "VS",
          "VS",
          "VS",
          "VS",
          "VS",
          "VS",
          "VS",
          "VS",
          "VS",
          "VS",
          "VS",
          "VS",
          "VS",
          "VS",
          "VS",
          "VS",
          "VS",
          "VS",
          "VS",
          "VS",
          "VS",
          "VS",
          "VS",
          "VS",
          "VS",
          "VS",
          "VS",
          "VS",
          "VS",
          "VS",
          "VS"
        ],
        "USUBJID": [
          "CDISC001",
          "CDISC001",
          "CDISC001",
          "CDISC001",
          "CDISC001",
          "CDISC001",
          "CDISC001",
          "CDISC001",
          "CDISC001",
          "CDISC001",
          "CDISC001",
          "CDISC001",
          "CDISC001",
          "CDISC001",
          "CDISC001",
          "CDISC001",
          "CDISC001",
          "CDISC001",
          "CDISC001",
          "CDISC001",
          "CDISC001",
          "CDISC001",
          "CDISC001",
          "CDISC001",
          "CDISC001",
          "CDISC001",
          "CDISC001",
          "CDISC001",
          "CDISC001",
          "CDISC001",
          "CDISC001",
          "CDISC001",
          "CDISC001",
          "CDISC001"
        ],
        "VSSEQ": [
          1, 2, 3, 4, 5, 6, 7, 8, 9, 20, 21, 22, 23, 24, 25, 26, 27, 28, 29, 30,
          31, 32, 46, 47, 48, 49, 50, 51, 52, 53, 54, 55, 56, 57
        ],
        "VSNOTEST": [
          "DIABP_1",
          "DIABP",
          "DIABP",
          "DIABP",
          "DIABP",
          "DIA_BP",
          "DIABP",
          "DIABP",
          "DIABP",
          "PULSE",
          "PULSE123",
          "PULSE",
          "PULSE",
          "PULSE",
          "PULSE",
          "PULSE",
          "PULSE",
          "PULSE",
          "PULSE",
          "SYSBP",
          "SYSBP",
          "SYSBP",
          "TEMP",
          "TEMP",
          "TEMP",
          "TEMP",
          "TEMP",
          "TEMP",
          "WEIGHT",
          "WEIGHT",
          "WEIGHT",
          "WEIGHT",
          "WEIGHT",
          "WEIGHT"
        ],
        "VSTEST": [
          "Diastolic Blood Pressure",
          "Diastolic Blood Pressure",
          "Diastolic Blood Pressure",
          "Diastolic Blood Pressure",
          "Diastolic Blood Pressure",
          "Diastolic Blood Pressure",
          "Diastolic Blood Pressure",
          "Diastolic Blood Pressure",
          "Diastolic Blood Pressure",
          "Pulse Rate",
          "Pulse Rate",
          "Pulse Rate",
          "Pulse Rate",
          "Pulse Rate",
          "Pulse Rate",
          "Pulse Rate",
          "Pulse Rate",
          "Pulse Rate",
          "Pulse Rate",
          "Systolic Blood Pressure",
          "Systolic Blood Pressure",
          "Systolic Blood Pressure",
          "Temperature",
          "Temperature",
          "Temperature",
          "Temperature",
          "Temperature",
          "Temperature",
          "Weight",
          "Weight",
          "Weight",
          "Weight",
          "Weight",
          "Weight"
        ],
        "VSPOS": [
          "STANDING",
          "STANDING",
          "STANDING",
          "STANDING",
          "STANDING",
          "SUPINE",
          "STANDING",
          "STANDING",
          "SUPINE",
          "STANDING",
          "SUPINE",
          "STANDING",
          "STANDING",
          "SUPINE",
          "STANDING",
          "STANDING",
          "SUPINE",
          "STANDING",
          "STANDING",
          "STANDING",
          "STANDING",
          "STANDING",
          "",
          "",
          "",
          "",
          "",
          "",
          "",
          "",
          "",
          "",
          "",
          ""
        ],
        "VSORRES": [
          "71",
          "71",
          "83",
          "79",
          "68",
          "77",
          "71",
          "69",
          "76",
          "51",
          "52",
          "62",
          "62",
          "50",
          "52",
          "54",
          "79",
          "98",
          "94",
          "137",
          "137",
          "130",
          "98.0",
          "98.0",
          "97.7",
          "97.6",
          "97.6",
          "97.4",
          "173.5",
          "174.0",
          "174.0",
          "173.0",
          "173.0",
          "173.0"
        ],
        "VSORRESU": [
          "mmHg",
          "mmHg",
          "mmHg",
          "mmHg",
          "mmHg",
          "mmHg",
          "mmHg",
          "mmHg",
          "mmHg",
          "beats/min",
          "beats/min",
          "beats/min",
          "beats/min",
          "beats/min",
          "beats/min",
          "beats/min",
          "beats/min",
          "beats/min",
          "beats/min",
          "mmHg",
          "mmHg",
          "mmHg",
          "F",
          "F",
          "F",
          "F",
          "F",
          "F",
          "LB",
          "LB",
          "LB",
          "LB",
          "LB",
          "LB"
        ],
        "VSSTRESC": [
          "71",
          "71",
          "83",
          "79",
          "68",
          "77",
          "71",
          "69",
          "76",
          "51",
          "52",
          "62",
          "62",
          "50",
          "52",
          "54",
          "79",
          "98",
          "94",
          "137",
          "137",
          "130",
          "36.67",
          "36.67",
          "36.5",
          "36.44",
          "36.44",
          "36.33",
          "78.7",
          "78.93",
          "78.93",
          "78.47",
          "78.47",
          "78.47"
        ],
        "VSSTRESN": [
          71, 71, 83, 79, 68, 77, 71, 69, 76, 51, 52, 62, 62, 50, 52, 54, 79,
          98, 94, 137, 137, 130, 36.68, 36.68, 36.6, 36.45, 36.45, 36.34, 78.8,
          78.94, 78.94, 78.48, 78.48, 78.48
        ],
        "VSSTRESU": [
          "mmHg",
          "mmHg",
          "mmHg",
          "mmHg",
          "mmHg",
          "mmHg",
          "mmHg",
          "mmHg",
          "mmHg",
          "beats/min",
          "beats/min",
          "beats/min",
          "beats/min",
          "beats/min",
          "beats/min",
          "beats/min",
          "beats/min",
          "beats/min",
          "beats/min",
          "mmHg",
          "mmHg",
          "mmHg",
          "C",
          "C",
          "C",
          "C",
          "C",
          "C",
          "kg",
          "kg",
          "kg",
          "kg",
          "kg",
          "kg"
        ],
        "VSSTAT": [
          "",
          "",
          "",
          "",
          "",
          "",
          "",
          "",
          "",
          "",
          "",
          "",
          "",
          "",
          "",
          "",
          "",
          "",
          "",
          "",
          "",
          "",
          "",
          "",
          "",
          "",
          "",
          "",
          "",
          "",
          "",
          "",
          "",
          ""
        ],
        "VSLOC": [
          "",
          "",
          "",
          "",
          "",
          "",
          "",
          "",
          "",
          "",
          "",
          "",
          "",
          "",
          "",
          "",
          "",
          "",
          "",
          "",
          "",
          "",
          "ORAL CAVITY",
          "ORAL CAVITY",
          "ORAL CAVITY",
          "ORAL CAVITY",
          "ORAL CAVITY",
          "ORAL CAVITY",
          "",
          "",
          "",
          "",
          "",
          ""
        ],
        "VSLOBXFL": [
          "",
          "",
          "Y",
          "",
          "",
          "",
          "",
          "",
          "",
          "",
          "",
          "",
          "",
          "",
          "",
          "",
          "",
          "",
          "",
          "",
          "",
          "Y",
          "Y",
          "",
          "",
          "",
          "",
          "",
          "",
          "Y",
          "",
          "",
          "",
          ""
        ],
        "VSREPNUM": [
          null,
          null,
          null,
          null,
          null,
          1,
          2,
          3,
          1,
          null,
          1,
          2,
          3,
          1,
          2,
          3,
          1,
          2,
          3,
          null,
          null,
          null,
          null,
          null,
          null,
          null,
          null,
          null,
          null,
          null,
          null,
          null,
          null,
          null
        ],
        "VISITNUM": [
          1, 2, 3, 4, 5, 7, 7, 7, 8, 5, 7, 7, 7, 8, 8, 8, 201, 201, 201, 1, 2,
          3, 3, 4, 5, 7, 8, 201, 1, 3, 4, 5, 7, 8
        ],
        "VISIT": [
          "SCREENING 1",
          "SCREENING 2",
          "BASELINE",
          "WEEK 2",
          "WEEK 4",
          "WEEK 6",
          "WEEK 6",
          "WEEK 6",
          "WEEK 8",
          "WEEK 4",
          "WEEK 6",
          "WEEK 6",
          "WEEK 6",
          "WEEK 8",
          "WEEK 8",
          "WEEK 8",
          "EARLY DISCONTINUATION RETRIEVAL",
          "EARLY DISCONTINUATION RETRIEVAL",
          "EARLY DISCONTINUATION RETRIEVAL",
          "SCREENING 1",
          "SCREENING 2",
          "BASELINE",
          "BASELINE",
          "WEEK 2",
          "WEEK 4",
          "WEEK 6",
          "WEEK 8",
          "EARLY DISCONTINUATION RETRIEVAL",
          "SCREENING 1",
          "BASELINE",
          "WEEK 2",
          "WEEK 4",
          "WEEK 6",
          "WEEK 8"
        ],
        "EPOCH": [
          "SCREENING",
          "SCREENING",
          "SCREENING",
          "TREATMENT",
          "TREATMENT",
          "TREATMENT",
          "TREATMENT",
          "TREATMENT",
          "TREATMENT",
          "TREATMENT",
          "TREATMENT",
          "TREATMENT",
          "TREATMENT",
          "TREATMENT",
          "TREATMENT",
          "TREATMENT",
          "TREATMENT",
          "TREATMENT",
          "TREATMENT",
          "SCREENING",
          "SCREENING",
          "SCREENING",
          "SCREENING",
          "TREATMENT",
          "TREATMENT",
          "TREATMENT",
          "TREATMENT",
          "TREATMENT",
          "SCREENING",
          "SCREENING",
          "TREATMENT",
          "TREATMENT",
          "TREATMENT",
          "TREATMENT"
        ],
        "VSDTC": [
          "2012-11-23",
          "2012-11-28",
          "2012-11-30",
          "2012-12-13",
          "2012-12-26",
          "2013-01-10",
          "2013-01-10",
          "2013-01-10",
          "2013-01-23",
          "2012-12-26",
          "2013-01-10",
          "2013-01-10",
          "2013-01-10",
          "2013-01-23",
          "2013-01-23",
          "2013-01-23",
          "2013-05-20",
          "2013-05-20",
          "2013-05-20",
          "2012-11-23",
          "2012-11-28",
          "2012-11-30",
          "2012-11-30",
          "2012-12-13",
          "2012-12-26",
          "2013-01-10",
          "2013-01-23",
          "2013-05-20",
          "2012-11-23",
          "2012-11-30",
          "2012-12-13",
          "2012-12-26",
          "2013-01-10",
          "2013-01-23"
        ],
        "VSDY": [
          -7, -2, 1, 14, 27, 42, 42, 42, 55, 27, 42, 42, 42, 55, 55, 55, 172,
          172, 172, -7, -2, 1, 1, 14, 27, 42, 55, 172, -7, 1, 14, 27, 42, 55
        ]
      }
    }
  ]
}
